id,date,time,sht_t,sht_h,pm1,pm25,pm10,co2,adc,acc_x,acc_y,acc_z,accx_int,accy_int,accz_int,accx_i,accy_i,accz_i,sht_t_ext,sht_h_ext,gps_lat,gps_lon,gps_alt,gps_speed,gps_dir,gps_fix,pressure,ai1_1,ai1_2,ai1_3,ai1_4,ai2_1,ai2_2,ai2_3,ai2_4,ERR
0C9A4249DB60,2020-04-09,00:00:00,28.1,52.6,248,542,650,521,0,2,1,50,34,20,30,2,1,50,0.0,0.0,25.039288,121.612939,0,0,0,0,0,0,0,0,0,0,0,0,0,00000000
0C9A4249DB60,2020-04-09,00:00:15,28.1,52.6,250,544,656,521,0,2,1,50,48,16,24,2,1,50,0.0,0.0,25.039288,121.612939,0,0,0,0,0,0,0,0,0,0,0,0,0,00000000
0C9A4249DB60,2020-04-09,00:00:30,28.1,52.6,252,541,647,522,0,2,1,50,46,28,43,2,1,49,0.0,0.0,25.039288,121.612939,0,0,0,0,0,0,0,0,0,0,0,0,0,00000000
0C9A4249DB60,2020-04-09,00:00:45,28.1,52.6,250,538,646,522,0,2,1,49,34,30,31,2,1,50,0.0,0.0,25.039288,121.612939,0,0,0,0,0,0,0,0,0,0,0,0,0,00000000
0C9A4249DB60,2020-04-09,00:01:00,28.1,52.6,252,538,641,521,0,2,1,50,27,18,58,1,1,50,0.0,0.0,25.039288,121.612939,0,0,0,0,0,0,0,0,0,0,0,0,0,00000000
0C9A4249DB60,2020-04-09,00:01:15,28.1,52.6,251,541,635,521,0,1,1,50,41,24,32,2,1,50,0.0,0.0,25.039288,121.612939,0,0,0,0,0,0,0,0,0,0,0,0,0,00000000
0C9A4249DB60,2020-04-09,00:01:30,28.1,52.6,248,546,633,521,0,2,1,50,52,12,30,2,1,50,0.0,0.0,25.039288,121.612939,0,0,0,0,0,0,0,0,0,0,0,0,0,00000000
0C9A4249DB60,2020-04-09,00:01:45,28.1,52.6,248,547,631,521,0,2,1,50,43,25,38,3,2,50,0.0,0.0,25.039288,121.612939,0,0,0,0,0,0,0,0,0,0,0,0,0,00000000
0C9A4249DB60,2020-04-09,00:02:00,28.1,52.6,252,552,654,521,0,3,2,50,29,23,28,2,1,50,0.0,0.0,25.039288,121.612939,0,0,0,0,0,0,0,0,0,0,0,0,0,00000000
0C9A4249DB60,2020-04-09,00:02:15,28.1,52.6,248,542,646,521,0,2,1,50,50,20,26,2,1,50,0.0,0.0,25.039288,121.612939,0,0,0,0,0,0,0,0,0,0,0,0,0,00000000
0C9A4249DB60,2020-04-09,00:02:30,28.1,52.6,249,541,643,521,0,2,1,50,42,20,32,2,1,50,0.0,0.0,25.039288,121.612939,0,0,0,0,0,0,0,0,0,0,0,0,0,00000000
0C9A4249DB60,2020-04-09,00:02:45,28.1,52.6,253,540,644,520,0,2,1,50,42,12,30,2,1,50,0.0,0.0,25.039288,121.612939,0,0,0,0,0,0,0,0,0,0,0,0,0,00000000
0C9A4249DB60,2020-04-09,00:03:00,28.1,52.6,253,542,647,521,0,2,1,50,54,16,30,2,1,50,0.0,0.0,25.039288,121.612939,0,0,0,0,0,0,0,0,0,0,0,0,0,00000000
0C9A4249DB60,2020-04-09,00:03:15,28.1,52.6,255,542,646,523,0,2,1,50,42,30,49,2,1,51,0.0,0.0,25.039288,121.612939,0,0,0,0,0,0,0,0,0,0,0,0,0,00000000
0C9A4249DB60,2020-04-09,00:03:30,28.1,52.6,250,547,645,521,0,2,1,51,46,26,35,2,1,50,0.0,0.0,25.039288,121.612939,0,0,0,0,0,0,0,0,0,0,0,0,0,00000000
0C9A4249DB60,2020-04-09,00:03:45,28.1,52.6,246,546,647,522,0,2,1,50,27,24,36,1,1,50,0.0,0.0,25.039288,121.612939,0,0,0,0,0,0,0,0,0,0,0,0,0,00000000
0C9A4249DB60,2020-04-09,00:04:00,28.1,52.6,244,549,652,523,0,1,1,50,37,20,42,2,1,50,0.0,0.0,25.039288,121.612939,0,0,0,0,0,0,0,0,0,0,0,0,0,00000000
0C9A4249DB60,2020-04-09,00:04:15,28.1,52.6,245,545,647,523,0,2,1,50,54,26,42,2,1,50,0.0,0.0,25.039288,121.612939,0,0,0,0,0,0,0,0,0,0,0,0,0,00000000
0C9A4249DB60,2020-04-09,00:04:30,28.1,52.6,248,543,645,523,0,2,1,50,42,26,50,2,1,50,0.0,0.0,25.039288,121.612939,0,0,0,0,0,0,0,0,0,0,0,0,0,00000000
0C9A4249DB60,2020-04-09,00:04:45,28.1,52.6,243,527,626,523,0,2,1,50,48,30,42,2,1,50,0.0,0.0,25.039288,121.612939,0,0,0,0,0,0,0,0,0,0,0,0,0,00000000
0C9A4249DB60,2020-04-09,00:05:00,28.1,52.6,248,538,633,523,0,2,1,50,34,13,32,2,2,50,0.0,0.0,25.039288,121.612939,0,0,0,0,0,0,0,0,0,0,0,0,0,00000000
0C9A4249DB60,2020-04-09,00:05:15,28.1,52.6,251,543,640,523,0,2,2,50,36,33,40,2,1,50,0.0,0.0,25.039288,121.612939,0,0,0,0,0,0,0,0,0,0,0,0,0,00000000
0C9A4249DB60,2020-04-09,00:05:30,28.1,52.6,249,549,646,522,0,2,1,50,60,40,42,2,1,50,0.0,0.0,25.039288,121.612939,0,0,0,0,0,0,0,0,0,0,0,0,0,00000000
0C9A4249DB60,2020-04-09,00:05:45,28.1,52.6,250,544,655,523,0,2,1,50,44,20,38,2,1,50,0.0,0.0,25.039288,121.612939,0,0,0,0,0,0,0,0,0,0,0,0,0,00000000
0C9A4249DB60,2020-04-09,00:06:00,28.1,52.6,248,538,651,523,0,2,1,50,38,20,28,2,1,50,0.0,0.0,25.039288,121.612939,0,0,0,0,0,0,0,0,0,0,0,0,0,00000000
0C9A4249DB60,2020-04-09,00:06:15,28.1,52.6,248,528,641,523,0,2,1,50,46,20,50,2,1,50,0.0,0.0,25.039288,121.612939,0,0,0,0,0,0,0,0,0,0,0,0,0,00000000
0C9A4249DB60,2020-04-09,00:06:30,28.1,52.6,250,530,639,522,0,2,1,50,38,30,26,2,1,50,0.0,0.0,25.039288,121.612939,0,0,0,0,0,0,0,0,0,0,0,0,0,00000000
0C9A4249DB60,2020-04-09,00:06:45,28.1,52.6,250,526,645,521,0,2,1,50,53,26,42,1,1,50,0.0,0.0,25.039288,121.612939,0,0,0,0,0,0,0,0,0,0,0,0,0,00000000
0C9A4249DB60,2020-04-09,00:07:00,28.1,52.6,249,532,651,521,0,1,1,50,41,26,39,2,1,49,0.0,0.0,25.039288,121.612939,0,0,0,0,0,0,0,0,0,0,0,0,0,00000000
0C9A4249DB60,2020-04-09,00:07:15,28.1,52.6,245,532,662,521,0,2,1,49,42,20,41,2,1,50,0.0,0.0,25.039288,121.612939,0,0,0,0,0,0,0,0,0,0,0,0,0,00000000
0C9A4249DB60,2020-04-09,00:07:30,28.1,52.6,243,534,665,522,0,2,1,50,36,42,36,2,1,50,0.0,0.0,25.039288,121.612939,0,0,0,0,0,0,0,0,0,0,0,0,0,00000000
0C9A4249DB60,2020-04-09,00:07:45,28.1,52.6,245,533,663,522,0,2,1,50,40,31,36,2,0,50,0.0,0.0,25.039288,121.612939,0,0,0,0,0,0,0,0,0,0,0,0,0,00000000
0C9A4249DB60,2020-04-09,00:08:00,28.1,52.6,247,539,651,521,0,2,0,50,44,25,31,2,1,49,0.0,0.0,25.039288,121.612939,0,0,0,0,0,0,0,0,0,0,0,0,0,00000000
0C9A4249DB60,2020-04-09,00:08:15,28.1,52.6,247,543,642,520,0,2,1,49,40,34,53,2,1,50,0.0,0.0,25.039288,121.612939,0,0,0,0,0,0,0,0,0,0,0,0,0,00000000
0C9A4249DB60,2020-04-09,00:08:30,28.1,52.6,249,548,632,520,0,2,1,50,46,20,44,2,1,50,0.0,0.0,25.039288,121.612939,0,0,0,0,0,0,0,0,0,0,0,0,0,00000000
0C9A4249DB60,2020-04-09,00:08:45,28.1,52.6,247,541,631,520,0,2,1,50,42,29,44,2,0,50,0.0,0.0,25.039288,121.612939,0,0,0,0,0,0,0,0,0,0,0,0,0,00000000
0C9A4249DB60,2020-04-09,00:09:00,28.1,52.6,250,539,639,519,0,2,0,50,44,35,42,2,1,50,0.0,0.0,25.039288,121.612939,0,0,0,0,0,0,0,0,0,0,0,0,0,00000000
0C9A4249DB60,2020-04-09,00:09:15,28.1,52.6,246,536,645,519,0,2,1,50,42,40,38,2,1,50,0.0,0.0,25.039288,121.612939,0,0,0,0,0,0,0,0,0,0,0,0,0,00000000
0C9A4249DB60,2020-04-09,00:09:30,28.1,52.6,250,535,648,519,0,2,1,50,38,30,36,2,1,50,0.0,0.0,25.039288,121.612939,0,0,0,0,0,0,0,0,0,0,0,0,0,00000000
0C9A4249DB60,2020-04-09,00:09:45,28.1,52.6,249,533,645,520,0,2,1,50,53,6,37,1,1,51,0.0,0.0,25.039288,121.612939,0,0,0,0,0,0,0,0,0,0,0,0,0,00000000
0C9A4249DB60,2020-04-09,00:10:00,28.1,52.6,247,537,648,521,0,1,1,51,27,48,45,2,1,50,0.0,0.0,25.039288,121.612939,0,0,0,0,0,0,0,0,0,0,0,0,0,00000000
0C9A4249DB60,2020-04-09,00:10:15,28.1,52.6,244,538,648,520,0,2,1,50,46,26,33,2,1,49,0.0,0.0,25.039288,121.612939,0,0,0,0,0,0,0,0,0,0,0,0,0,00000000
0C9A4249DB60,2020-04-09,00:10:30,28.1,52.6,244,533,641,520,0,2,1,49,52,22,55,2,1,50,0.0,0.0,25.039288,121.612939,0,0,0,0,0,0,0,0,0,0,0,0,0,00000000
0C9A4249DB60,2020-04-09,00:10:45,28.1,52.6,245,532,647,520,0,2,1,50,40,34,30,2,1,50,0.0,0.0,25.039288,121.612939,0,0,0,0,0,0,0,0,0,0,0,0,0,00000000
0C9A4249DB60,2020-04-09,00:11:00,28.1,52.6,249,533,643,522,0,2,1,50,51,32,46,1,1,50,0.0,0.0,25.039288,121.612939,0,0,0,0,0,0,0,0,0,0,0,0,0,00000000
0C9A4249DB60,2020-04-09,00:11:15,28.1,52.6,249,530,643,523,0,1,1,50,26,22,33,3,1,49,0.0,0.0,25.039288,121.612939,0,0,0,0,0,0,0,0,0,0,0,0,0,00000000
0C9A4249DB60,2020-04-09,00:11:30,28.1,52.6,249,533,649,523,0,3,1,49,61,31,38,2,2,49,0.0,0.0,25.039288,121.612939,0,0,0,0,0,0,0,0,0,0,0,0,0,00000000
0C9A4249DB60,2020-04-09,00:11:45,28.1,52.6,246,532,642,522,0,2,2,49,49,31,43,3,1,50,0.0,0.0,25.039288,121.612939,0,0,0,0,0,0,0,0,0,0,0,0,0,00000000
0C9A4249DB60,2020-04-09,00:12:00,28.1,52.6,248,530,645,523,0,3,1,50,50,40,42,1,1,50,0.0,0.0,25.039288,121.612939,0,0,0,0,0,0,0,0,0,0,0,0,0,00000000
0C9A4249DB60,2020-04-09,00:12:15,28.1,52.6,249,529,635,523,0,1,1,50,43,44,42,2,1,50,0.0,0.0,25.039288,121.612939,0,0,0,0,0,0,0,0,0,0,0,0,0,00000000
0C9A4249DB60,2020-04-09,00:12:30,28.1,52.6,246,521,618,522,0,2,1,50,50,36,49,2,1,49,0.0,0.0,25.039288,121.612939,0,0,0,0,0,0,0,0,0,0,0,0,0,00000000
0C9A4249DB60,2020-04-09,00:12:45,28.1,52.6,248,528,622,522,0,2,1,49,46,18,34,2,1,51,0.0,0.0,25.039288,121.612939,0,0,0,0,0,0,0,0,0,0,0,0,0,00000000
0C9A4249DB60,2020-04-09,00:13:00,28.1,52.6,248,533,630,522,0,2,1,51,44,36,37,2,1,50,0.0,0.0,25.039288,121.612939,0,0,0,0,0,0,0,0,0,0,0,0,0,00000000
0C9A4249DB60,2020-04-09,00:13:15,28.1,52.6,248,527,634,522,0,2,1,50,44,26,42,2,1,50,0.0,0.0,25.039288,121.612939,0,0,0,0,0,0,0,0,0,0,0,0,0,00000000
0C9A4249DB60,2020-04-09,00:13:30,28.1,52.6,246,530,642,522,0,2,1,50,52,18,50,2,1,50,0.0,0.0,25.039288,121.612939,0,0,0,0,0,0,0,0,0,0,0,0,0,00000000
0C9A4249DB60,2020-04-09,00:13:45,28.1,52.6,247,527,645,522,0,2,1,50,46,22,36,2,1,50,0.0,0.0,25.039288,121.612939,0,0,0,0,0,0,0,0,0,0,0,0,0,00000000
0C9A4249DB60,2020-04-09,00:14:00,28.1,52.6,247,531,646,520,0,2,1,50,36,26,30,2,1,50,0.0,0.0,25.039288,121.612939,0,0,0,0,0,0,0,0,0,0,0,0,0,00000000
0C9A4249DB60,2020-04-09,00:14:15,28.1,52.6,247,529,633,521,0,2,1,50,46,28,26,2,1,50,0.0,0.0,25.039288,121.612939,0,0,0,0,0,0,0,0,0,0,0,0,0,00000000
0C9A4249DB60,2020-04-09,00:14:30,28.1,52.6,248,529,633,518,0,2,1,50,48,25,54,2,0,50,0.0,0.0,25.039288,121.612939,0,0,0,0,0,0,0,0,0,0,0,0,0,00000000
0C9A4249DB60,2020-04-09,00:14:45,28.1,52.6,248,523,623,519,0,2,0,50,40,37,48,2,1,50,0.0,0.0,25.039288,121.612939,0,0,0,0,0,0,0,0,0,0,0,0,0,00000000
0C9A4249DB60,2020-04-09,00:15:00,28.1,52.6,248,527,635,520,0,2,1,50,42,34,30,2,1,50,0.0,0.0,25.039288,121.612939,0,0,0,0,0,0,0,0,0,0,0,0,0,00000000
0C9A4249DB60,2020-04-09,00:15:15,28.1,52.6,246,527,633,520,0,2,1,50,44,20,38,2,1,50,0.0,0.0,25.039288,121.612939,0,0,0,0,0,0,0,0,0,0,0,0,0,00000000
0C9A4249DB60,2020-04-09,00:15:30,28.1,52.6,245,530,630,521,0,2,1,50,39,40,42,1,1,50,0.0,0.0,25.039288,121.612939,0,0,0,0,0,0,0,0,0,0,0,0,0,00000000
0C9A4249DB60,2020-04-09,00:15:45,28.1,52.6,245,527,644,522,0,1,1,50,56,29,32,1,2,50,0.0,0.0,25.039288,121.612939,0,0,0,0,0,0,0,0,0,0,0,0,0,00000000
0C9A4249DB60,2020-04-09,00:16:00,28.1,52.6,245,528,644,522,0,1,2,50,41,32,39,2,0,49,0.0,0.0,25.039288,121.612939,0,0,0,0,0,0,0,0,0,0,0,0,0,00000000
0C9A4249DB60,2020-04-09,00:16:15,28.1,52.6,243,525,632,520,0,2,0,49,34,29,40,2,1,49,0.0,0.0,25.039288,121.612939,0,0,0,0,0,0,0,0,0,0,0,0,0,00000000
0C9A4249DB60,2020-04-09,00:16:30,28.1,52.6,243,523,620,519,0,2,1,49,52,35,23,2,0,50,0.0,0.0,25.039288,121.612939,0,0,0,0,0,0,0,0,0,0,0,0,0,00000000
0C9A4249DB60,2020-04-09,00:16:45,28.1,52.6,239,525,614,520,0,2,0,50,42,35,52,2,1,50,0.0,0.0,25.039288,121.612939,0,0,0,0,0,0,0,0,0,0,0,0,0,00000000
0C9A4249DB60,2020-04-09,00:17:00,28.1,52.6,245,526,621,521,0,2,1,50,40,22,38,2,1,50,0.0,0.0,25.039288,121.612939,0,0,0,0,0,0,0,0,0,0,0,0,0,00000000
0C9A4249DB60,2020-04-09,00:17:15,28.1,52.7,245,528,627,522,0,2,1,50,28,37,50,2,2,50,0.0,0.0,25.039288,121.612939,0,0,0,0,0,0,0,0,0,0,0,0,0,00000000
0C9A4249DB60,2020-04-09,00:17:30,28.1,52.6,245,526,626,523,0,2,2,50,58,31,44,2,1,50,0.0,0.0,25.039288,121.612939,0,0,0,0,0,0,0,0,0,0,0,0,0,00000000
0C9A4249DB60,2020-04-09,00:17:45,28.1,52.6,243,525,626,524,0,2,1,50,48,32,39,2,1,51,0.0,0.0,25.039288,121.612939,0,0,0,0,0,0,0,0,0,0,0,0,0,00000000
0C9A4249DB60,2020-04-09,00:18:00,28.1,52.6,245,520,623,525,0,2,1,51,43,29,42,1,0,51,0.0,0.0,25.039288,121.612939,0,0,0,0,0,0,0,0,0,0,0,0,0,00000000
0C9A4249DB60,2020-04-09,00:18:15,28.1,52.6,247,519,623,527,0,1,0,51,45,37,35,2,1,50,0.0,0.0,25.039288,121.612939,0,0,0,0,0,0,0,0,0,0,0,0,0,00000000
0C9A4249DB60,2020-04-09,00:18:30,28.1,52.6,247,517,620,526,0,2,1,50,58,18,44,2,1,50,0.0,0.0,25.039288,121.612939,0,0,0,0,0,0,0,0,0,0,0,0,0,00000000
0C9A4249DB60,2020-04-09,00:18:45,28.1,52.6,247,525,627,524,0,2,1,50,35,36,46,1,1,50,0.0,0.0,25.039288,121.612939,0,0,0,0,0,0,0,0,0,0,0,0,0,00000000
0C9A4249DB60,2020-04-09,00:19:00,28.1,52.6,245,535,639,525,0,1,1,50,35,26,34,2,1,50,0.0,0.0,25.039288,121.612939,0,0,0,0,0,0,0,0,0,0,0,0,0,00000000
0C9A4249DB60,2020-04-09,00:19:15,28.1,52.6,246,532,635,525,0,2,1,50,46,26,48,2,1,50,0.0,0.0,25.039288,121.612939,0,0,0,0,0,0,0,0,0,0,0,0,0,00000000
0C9A4249DB60,2020-04-09,00:19:30,28.1,52.6,245,533,637,524,0,2,1,50,46,26,42,2,1,50,0.0,0.0,25.039288,121.612939,0,0,0,0,0,0,0,0,0,0,0,0,0,00000000
0C9A4249DB60,2020-04-09,00:19:45,28.1,52.6,245,527,626,522,0,2,1,50,40,44,50,2,1,50,0.0,0.0,25.039288,121.612939,0,0,0,0,0,0,0,0,0,0,0,0,0,00000000
0C9A4249DB60,2020-04-09,00:20:00,28.1,52.6,245,533,637,523,0,2,1,50,50,22,42,2,1,50,0.0,0.0,25.039288,121.612939,0,0,0,0,0,0,0,0,0,0,0,0,0,00000000
0C9A4249DB60,2020-04-09,00:20:15,28.1,52.6,242,523,626,524,0,2,1,50,30,32,26,2,1,50,0.0,0.0,25.039288,121.612939,0,0,0,0,0,0,0,0,0,0,0,0,0,00000000
0C9A4249DB60,2020-04-09,00:20:30,28.1,52.6,245,525,628,524,0,2,1,50,22,18,36,2,1,50,0.0,0.0,25.039288,121.612939,0,0,0,0,0,0,0,0,0,0,0,0,0,00000000
0C9A4249DB60,2020-04-09,00:20:45,28.1,52.6,245,525,620,523,0,2,1,50,48,34,51,2,1,51,0.0,0.0,25.039288,121.612939,0,0,0,0,0,0,0,0,0,0,0,0,0,00000000
0C9A4249DB60,2020-04-09,00:21:00,28.1,52.6,246,523,623,524,0,2,1,51,30,28,33,2,1,50,0.0,0.0,25.039288,121.612939,0,0,0,0,0,0,0,0,0,0,0,0,0,00000000
0C9A4249DB60,2020-04-09,00:21:15,28.1,52.6,243,522,627,524,0,2,1,50,40,36,50,2,1,50,0.0,0.0,25.039288,121.612939,0,0,0,0,0,0,0,0,0,0,0,0,0,00000000
0C9A4249DB60,2020-04-09,00:21:30,28.1,52.6,243,520,629,523,0,2,1,50,40,31,36,2,2,50,0.0,0.0,25.039288,121.612939,0,0,0,0,0,0,0,0,0,0,0,0,0,00000000
0C9A4249DB60,2020-04-09,00:21:45,28.1,52.6,241,515,618,522,0,2,2,50,50,19,26,2,1,50,0.0,0.0,25.039288,121.612939,0,0,0,0,0,0,0,0,0,0,0,0,0,00000000
0C9A4249DB60,2020-04-09,00:22:00,28.1,52.6,242,524,627,522,0,2,1,50,42,20,42,2,1,50,0.0,0.0,25.039288,121.612939,0,0,0,0,0,0,0,0,0,0,0,0,0,00000000
0C9A4249DB60,2020-04-09,00:22:15,28.1,52.6,244,519,623,521,0,2,1,50,52,17,39,2,2,49,0.0,0.0,25.039288,121.612939,0,0,0,0,0,0,0,0,0,0,0,0,0,00000000
0C9A4249DB60,2020-04-09,00:22:30,28.1,52.6,245,521,621,519,0,2,2,49,40,21,43,2,1,50,0.0,0.0,25.039288,121.612939,0,0,0,0,0,0,0,0,0,0,0,0,0,00000000
0C9A4249DB60,2020-04-09,00:22:45,28.1,52.6,244,518,617,520,0,2,1,50,38,16,38,2,1,50,0.0,0.0,25.039288,121.612939,0,0,0,0,0,0,0,0,0,0,0,0,0,00000000
0C9A4249DB60,2020-04-09,00:23:00,28.1,52.6,243,518,609,519,0,2,1,50,48,32,44,2,1,50,0.0,0.0,25.039288,121.612939,0,0,0,0,0,0,0,0,0,0,0,0,0,00000000
0C9A4249DB60,2020-04-09,00:23:15,28.1,52.6,241,517,612,520,0,2,1,50,50,24,36,2,1,50,0.0,0.0,25.039288,121.612939,0,0,0,0,0,0,0,0,0,0,0,0,0,00000000
0C9A4249DB60,2020-04-09,00:23:30,28.1,52.6,243,519,613,521,0,2,1,50,48,33,36,2,0,50,0.0,0.0,25.039288,121.612939,0,0,0,0,0,0,0,0,0,0,0,0,0,00000000
0C9A4249DB60,2020-04-09,00:23:45,28.1,52.6,243,516,611,520,0,2,0,50,28,25,38,2,1,50,0.0,0.0,25.039288,121.612939,0,0,0,0,0,0,0,0,0,0,0,0,0,00000000
0C9A4249DB60,2020-04-09,00:24:00,28.1,52.6,245,525,620,520,0,2,1,50,30,26,36,2,1,50,0.0,0.0,25.039288,121.612939,0,0,0,0,0,0,0,0,0,0,0,0,0,00000000
0C9A4249DB60,2020-04-09,00:24:15,28.1,52.6,245,525,626,521,0,2,1,50,50,26,26,2,1,50,0.0,0.0,25.039288,121.612939,0,0,0,0,0,0,0,0,0,0,0,0,0,00000000
0C9A4249DB60,2020-04-09,00:24:30,28.1,52.5,243,525,629,520,0,2,1,50,32,22,30,2,1,50,0.0,0.0,25.039288,121.612939,0,0,0,0,0,0,0,0,0,0,0,0,0,00000000
0C9A4249DB60,2020-04-09,00:24:45,28.1,52.6,241,519,625,521,0,2,1,50,40,26,26,2,1,50,0.0,0.0,25.039288,121.612939,0,0,0,0,0,0,0,0,0,0,0,0,0,00000000
0C9A4249DB60,2020-04-09,00:25:00,28.1,52.6,243,517,621,521,0,2,1,50,42,36,38,2,1,50,0.0,0.0,25.039288,121.612939,0,0,0,0,0,0,0,0,0,0,0,0,0,00000000
0C9A4249DB60,2020-04-09,00:25:15,28.1,52.5,246,515,617,521,0,2,1,50,46,40,56,2,1,50,0.0,0.0,25.039288,121.612939,0,0,0,0,0,0,0,0,0,0,0,0,0,00000000
0C9A4249DB60,2020-04-09,00:25:30,28.1,52.6,247,527,626,522,0,2,1,50,52,26,48,2,1,50,0.0,0.0,25.039288,121.612939,0,0,0,0,0,0,0,0,0,0,0,0,0,00000000
0C9A4249DB60,2020-04-09,00:25:45,28.1,52.6,243,518,618,522,0,2,1,50,36,10,42,2,1,50,0.0,0.0,25.039288,121.612939,0,0,0,0,0,0,0,0,0,0,0,0,0,00000000
0C9A4249DB60,2020-04-09,00:26:00,28.1,52.6,242,513,614,521,0,2,1,50,36,26,30,2,1,50,0.0,0.0,25.039288,121.612939,0,0,0,0,0,0,0,0,0,0,0,0,0,00000000
0C9A4249DB60,2020-04-09,00:26:15,28.1,52.6,243,509,608,521,0,2,1,50,38,28,32,2,1,50,0.0,0.0,25.039288,121.612939,0,0,0,0,0,0,0,0,0,0,0,0,0,00000000
0C9A4249DB60,2020-04-09,00:26:30,28.1,52.6,247,513,607,522,0,2,1,50,36,18,42,2,1,50,0.0,0.0,25.039288,121.612939,0,0,0,0,0,0,0,0,0,0,0,0,0,00000000
0C9A4249DB60,2020-04-09,00:26:45,28.1,52.6,245,514,605,522,0,2,1,50,26,18,42,2,1,50,0.0,0.0,25.039288,121.612939,0,0,0,0,0,0,0,0,0,0,0,0,0,00000000
0C9A4249DB60,2020-04-09,00:27:00,28.1,52.6,245,513,610,522,0,2,1,50,58,18,26,2,1,50,0.0,0.0,25.039288,121.612939,0,0,0,0,0,0,0,0,0,0,0,0,0,00000000
0C9A4249DB60,2020-04-09,00:27:15,28.1,52.6,244,513,605,521,0,2,1,50,28,15,31,2,2,49,0.0,0.0,25.039288,121.612939,0,0,0,0,0,0,0,0,0,0,0,0,0,00000000
0C9A4249DB60,2020-04-09,00:27:30,28.1,52.6,244,514,611,521,0,2,2,49,28,17,31,2,1,50,0.0,0.0,25.039288,121.612939,0,0,0,0,0,0,0,0,0,0,0,0,0,00000000
0C9A4249DB60,2020-04-09,00:27:45,28.1,52.6,242,510,603,522,0,2,1,50,26,18,26,2,1,50,0.0,0.0,25.039288,121.612939,0,0,0,0,0,0,0,0,0,0,0,0,0,00000000
0C9A4249DB60,2020-04-09,00:28:00,28.1,52.6,242,515,606,522,0,2,1,50,40,16,26,2,1,50,0.0,0.0,25.039288,121.612939,0,0,0,0,0,0,0,0,0,0,0,0,0,00000000
0C9A4249DB60,2020-04-09,00:28:15,28.1,52.6,242,512,603,521,0,2,1,50,40,16,32,2,1,50,0.0,0.0,25.039288,121.612939,0,0,0,0,0,0,0,0,0,0,0,0,0,00000000
0C9A4249DB60,2020-04-09,00:28:30,28.1,52.6,243,511,599,521,0,2,1,50,36,12,44,2,1,50,0.0,0.0,25.039288,121.612939,0,0,0,0,0,0,0,0,0,0,0,0,0,00000000
0C9A4249DB60,2020-04-09,00:28:45,28.1,52.6,243,515,605,520,0,2,1,50,50,20,22,2,1,50,0.0,0.0,25.039288,121.612939,0,0,0,0,0,0,0,0,0,0,0,0,0,00000000
0C9A4249DB60,2020-04-09,00:29:00,28.1,52.6,242,516,607,520,0,2,1,50,50,20,32,2,1,50,0.0,0.0,25.039288,121.612939,0,0,0,0,0,0,0,0,0,0,0,0,0,00000000
0C9A4249DB60,2020-04-09,00:29:15,28.1,52.6,242,513,612,518,0,2,1,50,42,22,38,2,1,50,0.0,0.0,25.039288,121.612939,0,0,0,0,0,0,0,0,0,0,0,0,0,00000000
0C9A4249DB60,2020-04-09,00:29:30,28.1,52.6,246,508,612,519,0,2,1,50,46,28,53,2,1,49,0.0,0.0,25.039288,121.612939,0,0,0,0,0,0,0,0,0,0,0,0,0,00000000
0C9A4249DB60,2020-04-09,00:29:45,28.1,52.6,245,509,617,519,0,2,1,49,34,34,37,2,1,50,0.0,0.0,25.039288,121.612939,0,0,0,0,0,0,0,0,0,0,0,0,0,00000000
0C9A4249DB60,2020-04-09,00:30:00,28.1,52.6,244,512,613,519,0,2,1,50,56,28,40,2,1,50,0.0,0.0,25.039288,121.612939,0,0,0,0,0,0,0,0,0,0,0,0,0,00000000
0C9A4249DB60,2020-04-09,00:30:15,28.1,52.6,241,513,611,518,0,2,1,50,35,20,30,1,1,50,0.0,0.0,25.039288,121.612939,0,0,0,0,0,0,0,0,0,0,0,0,0,00000000
0C9A4249DB60,2020-04-09,00:30:30,28.1,52.7,243,511,599,519,0,1,1,50,49,22,42,2,1,50,0.0,0.0,25.039288,121.612939,0,0,0,0,0,0,0,0,0,0,0,0,0,00000000
0C9A4249DB60,2020-04-09,00:30:45,28.1,52.6,243,511,601,520,0,2,1,50,30,20,48,2,1,50,0.0,0.0,25.039288,121.612939,0,0,0,0,0,0,0,0,0,0,0,0,0,00000000
0C9A4249DB60,2020-04-09,00:31:00,28.1,52.6,244,513,603,520,0,2,1,50,41,20,43,1,1,49,0.0,0.0,25.039288,121.612939,0,0,0,0,0,0,0,0,0,0,0,0,0,00000000
0C9A4249DB60,2020-04-09,00:31:15,28.1,52.6,240,515,605,520,0,1,1,49,31,22,33,2,1,50,0.0,0.0,25.039288,121.612939,0,0,0,0,0,0,0,0,0,0,0,0,0,00000000
0C9A4249DB60,2020-04-09,00:31:30,28.1,52.6,239,499,595,520,0,2,1,50,40,24,40,2,1,50,0.0,0.0,25.039288,121.612939,0,0,0,0,0,0,0,0,0,0,0,0,0,00000000
0C9A4249DB60,2020-04-09,00:31:45,28.1,52.6,239,499,601,520,0,2,1,50,34,18,38,2,1,50,0.0,0.0,25.039288,121.612939,0,0,0,0,0,0,0,0,0,0,0,0,0,00000000
0C9A4249DB60,2020-04-09,00:32:00,28.1,52.6,243,507,606,521,0,2,1,50,34,22,20,2,1,50,0.0,0.0,25.039288,121.612939,0,0,0,0,0,0,0,0,0,0,0,0,0,00000000
0C9A4249DB60,2020-04-09,00:32:15,28.1,52.6,243,505,599,521,0,2,1,50,24,18,34,2,1,50,0.0,0.0,25.039288,121.612939,0,0,0,0,0,0,0,0,0,0,0,0,0,00000000
0C9A4249DB60,2020-04-09,00:32:30,28.1,52.6,241,503,595,521,0,2,1,50,32,22,44,2,1,50,0.0,0.0,25.039288,121.612939,0,0,0,0,0,0,0,0,0,0,0,0,0,00000000
0C9A4249DB60,2020-04-09,00:32:45,28.1,52.6,243,498,590,521,0,2,1,50,38,20,42,2,1,50,0.0,0.0,25.039288,121.612939,0,0,0,0,0,0,0,0,0,0,0,0,0,00000000
0C9A4249DB60,2020-04-09,00:33:00,28.1,52.5,240,500,604,521,0,2,1,50,27,20,22,1,1,50,0.0,0.0,25.039288,121.612939,0,0,0,0,0,0,0,0,0,0,0,0,0,00000000
0C9A4249DB60,2020-04-09,00:33:15,28.1,52.6,242,499,606,522,0,1,1,50,45,20,34,2,1,50,0.0,0.0,25.039288,121.612939,0,0,0,0,0,0,0,0,0,0,0,0,0,00000000
0C9A4249DB60,2020-04-09,00:33:30,28.1,52.6,243,507,613,522,0,2,1,50,42,22,36,2,1,50,0.0,0.0,25.039288,121.612939,0,0,0,0,0,0,0,0,0,0,0,0,0,00000000
0C9A4249DB60,2020-04-09,00:33:45,28.1,52.6,245,511,611,522,0,2,1,50,36,28,43,2,1,51,0.0,0.0,25.039288,121.612939,0,0,0,0,0,0,0,0,0,0,0,0,0,00000000
0C9A4249DB60,2020-04-09,00:34:00,28.1,52.6,250,528,628,521,0,2,1,51,42,20,41,2,1,50,0.0,0.0,25.039288,121.612939,0,0,0,0,0,0,0,0,0,0,0,0,0,00000000
0C9A4249DB60,2020-04-09,00:34:15,28.1,52.6,239,510,608,519,0,2,1,50,32,16,34,2,1,50,0.0,0.0,25.039288,121.612939,0,0,0,0,0,0,0,0,0,0,0,0,0,00000000
0C9A4249DB60,2020-04-09,00:34:30,28.1,52.6,238,512,609,519,0,2,1,50,36,24,37,2,1,49,0.0,0.0,25.039288,121.612939,0,0,0,0,0,0,0,0,0,0,0,0,0,00000000
0C9A4249DB60,2020-04-09,00:34:45,28.1,52.6,236,499,594,521,0,2,1,49,40,26,25,2,1,50,0.0,0.0,25.039288,121.612939,0,0,0,0,0,0,0,0,0,0,0,0,0,00000000
0C9A4249DB60,2020-04-09,00:35:00,28.1,52.6,239,504,600,522,0,2,1,50,33,22,34,1,1,50,0.0,0.0,25.039288,121.612939,0,0,0,0,0,0,0,0,0,0,0,0,0,00000000
0C9A4249DB60,2020-04-09,00:35:15,28.1,52.6,241,505,602,522,0,1,1,50,32,18,34,1,1,50,0.0,0.0,25.039288,121.612939,0,0,0,0,0,0,0,0,0,0,0,0,0,00000000
0C9A4249DB60,2020-04-09,00:35:30,28.1,52.6,241,509,611,522,0,1,1,50,41,20,38,2,1,50,0.0,0.0,25.039288,121.612939,0,0,0,0,0,0,0,0,0,0,0,0,0,00000000
0C9A4249DB60,2020-04-09,00:35:45,28.1,52.6,241,513,604,521,0,2,1,50,32,8,30,2,1,50,0.0,0.0,25.039288,121.612939,0,0,0,0,0,0,0,0,0,0,0,0,0,00000000
0C9A4249DB60,2020-04-09,00:36:00,28.1,52.6,241,508,607,521,0,2,1,50,48,28,41,2,1,51,0.0,0.0,25.039288,121.612939,0,0,0,0,0,0,0,0,0,0,0,0,0,00000000
0C9A4249DB60,2020-04-09,00:36:15,28.1,52.6,240,499,602,521,0,2,1,51,36,20,35,2,1,50,0.0,0.0,25.039288,121.612939,0,0,0,0,0,0,0,0,0,0,0,0,0,00000000
0C9A4249DB60,2020-04-09,00:36:30,28.1,52.6,239,494,602,520,0,2,1,50,32,18,40,2,1,50,0.0,0.0,25.039288,121.612939,0,0,0,0,0,0,0,0,0,0,0,0,0,00000000
0C9A4249DB60,2020-04-09,00:36:45,28.1,52.6,238,499,599,521,0,2,1,50,54,8,20,2,1,50,0.0,0.0,25.039288,121.612939,0,0,0,0,0,0,0,0,0,0,0,0,0,00000000
0C9A4249DB60,2020-04-09,00:37:00,28.1,52.6,237,505,597,520,0,2,1,50,38,20,41,2,1,51,0.0,0.0,25.039288,121.612939,0,0,0,0,0,0,0,0,0,0,0,0,0,00000000
0C9A4249DB60,2020-04-09,00:37:15,28.1,52.6,237,507,603,520,0,2,1,51,33,24,30,1,1,49,0.0,0.0,25.039288,121.612939,0,0,0,0,0,0,0,0,0,0,0,0,0,00000000
0C9A4249DB60,2020-04-09,00:37:30,28.1,52.6,238,498,595,520,0,1,1,49,45,26,55,2,1,50,0.0,0.0,25.039288,121.612939,0,0,0,0,0,0,0,0,0,0,0,0,0,00000000
0C9A4249DB60,2020-04-09,00:37:45,28.1,52.6,241,503,612,521,0,2,1,50,32,30,34,2,1,50,0.0,0.0,25.039288,121.612939,0,0,0,0,0,0,0,0,0,0,0,0,0,00000000
0C9A4249DB60,2020-04-09,00:38:00,28.1,52.6,242,500,603,521,0,2,1,50,38,26,32,2,1,50,0.0,0.0,25.039288,121.612939,0,0,0,0,0,0,0,0,0,0,0,0,0,00000000
0C9A4249DB60,2020-04-09,00:38:15,28.1,52.6,240,500,596,520,0,2,1,50,52,22,36,2,1,50,0.0,0.0,25.039288,121.612939,0,0,0,0,0,0,0,0,0,0,0,0,0,00000000
0C9A4249DB60,2020-04-09,00:38:30,28.1,52.6,242,501,576,520,0,2,1,50,36,16,29,2,1,51,0.0,0.0,25.039288,121.612939,0,0,0,0,0,0,0,0,0,0,0,0,0,00000000
0C9A4249DB60,2020-04-09,00:38:45,28.1,52.6,241,503,586,520,0,2,1,51,50,26,36,2,1,49,0.0,0.0,25.039288,121.612939,0,0,0,0,0,0,0,0,0,0,0,0,0,00000000
0C9A4249DB60,2020-04-09,00:39:00,28.1,52.6,238,500,593,520,0,2,1,49,34,17,32,2,2,49,0.0,0.0,25.039288,121.612939,0,0,0,0,0,0,0,0,0,0,0,0,0,00000000
0C9A4249DB60,2020-04-09,00:39:15,28.1,52.6,235,501,603,520,0,2,2,49,44,17,35,2,1,50,0.0,0.0,25.039288,121.612939,0,0,0,0,0,0,0,0,0,0,0,0,0,00000000
0C9A4249DB60,2020-04-09,00:39:30,28.1,52.6,237,500,591,520,0,2,1,50,42,26,38,2,1,50,0.0,0.0,25.039288,121.612939,0,0,0,0,0,0,0,0,0,0,0,0,0,00000000
0C9A4249DB60,2020-04-09,00:39:45,28.1,52.6,238,503,598,520,0,2,1,50,56,20,30,2,1,50,0.0,0.0,25.039288,121.612939,0,0,0,0,0,0,0,0,0,0,0,0,0,00000000
0C9A4249DB60,2020-04-09,00:40:00,28.1,52.6,237,503,595,520,0,2,1,50,31,12,38,1,1,50,0.0,0.0,25.039288,121.612939,0,0,0,0,0,0,0,0,0,0,0,0,0,00000000
0C9A4249DB60,2020-04-09,00:40:15,28.1,52.7,237,505,598,521,0,1,1,50,41,29,34,2,2,50,0.0,0.0,25.039288,121.612939,0,0,0,0,0,0,0,0,0,0,0,0,0,00000000
0C9A4249DB60,2020-04-09,00:40:30,28.1,52.6,238,496,591,521,0,2,2,50,32,23,36,2,1,50,0.0,0.0,25.039288,121.612939,0,0,0,0,0,0,0,0,0,0,0,0,0,00000000
0C9A4249DB60,2020-04-09,00:40:45,28.1,52.6,239,492,595,521,0,2,1,50,46,21,30,2,0,50,0.0,0.0,25.039288,121.612939,0,0,0,0,0,0,0,0,0,0,0,0,0,00000000
0C9A4249DB60,2020-04-09,00:41:00,28.1,52.6,241,493,593,521,0,2,0,50,38,29,40,2,1,50,0.0,0.0,25.039288,121.612939,0,0,0,0,0,0,0,0,0,0,0,0,0,00000000
0C9A4249DB60,2020-04-09,00:41:15,28.1,52.6,242,493,586,522,0,2,1,50,40,24,44,2,1,50,0.0,0.0,25.039288,121.612939,0,0,0,0,0,0,0,0,0,0,0,0,0,00000000
0C9A4249DB60,2020-04-09,00:41:30,28.1,52.6,241,488,571,522,0,2,1,50,46,20,32,2,1,50,0.0,0.0,25.039288,121.612939,0,0,0,0,0,0,0,0,0,0,0,0,0,00000000
0C9A4249DB60,2020-04-09,00:41:45,28.1,52.6,241,493,584,522,0,2,1,50,42,20,40,2,1,50,0.0,0.0,25.039288,121.612939,0,0,0,0,0,0,0,0,0,0,0,0,0,00000000
0C9A4249DB60,2020-04-09,00:42:00,28.1,52.6,238,495,585,521,0,2,1,50,38,26,48,2,1,50,0.0,0.0,25.039288,121.612939,0,0,0,0,0,0,0,0,0,0,0,0,0,00000000
0C9A4249DB60,2020-04-09,00:42:15,28.1,52.6,237,493,581,520,0,2,1,50,47,22,30,1,1,50,0.0,0.0,25.039288,121.612939,0,0,0,0,0,0,0,0,0,0,0,0,0,00000000
0C9A4249DB60,2020-04-09,00:42:30,28.1,52.6,241,500,586,519,0,1,1,50,44,26,38,1,1,50,0.0,0.0,25.039288,121.612939,0,0,0,0,0,0,0,0,0,0,0,0,0,00000000
0C9A4249DB60,2020-04-09,00:42:45,28.1,52.6,242,501,588,520,0,1,1,50,39,16,42,2,1,50,0.0,0.0,25.039288,121.612939,0,0,0,0,0,0,0,0,0,0,0,0,0,00000000
0C9A4249DB60,2020-04-09,00:43:00,28.1,52.6,241,499,593,520,0,2,1,50,32,24,30,2,1,50,0.0,0.0,25.039288,121.612939,0,0,0,0,0,0,0,0,0,0,0,0,0,00000000
0C9A4249DB60,2020-04-09,00:43:15,28.1,52.6,240,503,605,521,0,2,1,50,56,35,50,2,2,50,0.0,0.0,25.039288,121.612939,0,0,0,0,0,0,0,0,0,0,0,0,0,00000000
0C9A4249DB60,2020-04-09,00:43:30,28.1,52.6,239,495,591,521,0,2,2,50,44,29,36,2,1,50,0.0,0.0,25.039288,121.612939,0,0,0,0,0,0,0,0,0,0,0,0,0,00000000
0C9A4249DB60,2020-04-09,00:43:45,28.1,52.6,240,499,591,521,0,2,1,50,18,22,30,2,1,50,0.0,0.0,25.039288,121.612939,0,0,0,0,0,0,0,0,0,0,0,0,0,00000000
0C9A4249DB60,2020-04-09,00:44:00,28.1,52.6,239,495,581,521,0,2,1,50,52,31,42,2,0,50,0.0,0.0,25.039288,121.612939,0,0,0,0,0,0,0,0,0,0,0,0,0,00000000
0C9A4249DB60,2020-04-09,00:44:15,28.1,52.6,237,493,583,521,0,2,0,50,42,25,40,2,1,50,0.0,0.0,25.039288,121.612939,0,0,0,0,0,0,0,0,0,0,0,0,0,00000000
0C9A4249DB60,2020-04-09,00:44:30,28.1,52.6,237,491,575,520,0,2,1,50,32,19,30,2,2,50,0.0,0.0,25.039288,121.612939,0,0,0,0,0,0,0,0,0,0,0,0,0,00000000
0C9A4249DB60,2020-04-09,00:44:45,28.1,52.6,241,495,581,520,0,2,2,50,34,31,32,2,1,50,0.0,0.0,25.039288,121.612939,0,0,0,0,0,0,0,0,0,0,0,0,0,00000000
0C9A4249DB60,2020-04-09,00:45:00,28.1,52.6,242,495,579,521,0,2,1,50,34,32,32,2,1,50,0.0,0.0,25.039288,121.612939,0,0,0,0,0,0,0,0,0,0,0,0,0,00000000
0C9A4249DB60,2020-04-09,00:45:15,28.1,52.6,242,498,576,521,0,2,1,50,28,24,48,2,1,50,0.0,0.0,25.039288,121.612939,0,0,0,0,0,0,0,0,0,0,0,0,0,00000000
0C9A4249DB60,2020-04-09,00:45:30,28.1,52.6,241,500,578,521,0,2,1,50,36,26,34,2,1,50,0.0,0.0,25.039288,121.612939,0,0,0,0,0,0,0,0,0,0,0,0,0,00000000
0C9A4249DB60,2020-04-09,00:45:45,28.1,52.6,239,499,571,520,0,2,1,50,36,27,44,2,2,50,0.0,0.0,25.039288,121.612939,0,0,0,0,0,0,0,0,0,0,0,0,0,00000000
0C9A4249DB60,2020-04-09,00:46:00,28.1,52.6,240,502,574,521,0,2,2,50,48,40,42,2,0,50,0.0,0.0,25.039288,121.612939,0,0,0,0,0,0,0,0,0,0,0,0,0,00000000
0C9A4249DB60,2020-04-09,00:46:15,28.1,52.6,238,501,573,520,0,2,0,50,30,26,40,2,0,50,0.0,0.0,25.039288,121.612939,0,0,0,0,0,0,0,0,0,0,0,0,0,00000000
0C9A4249DB60,2020-04-09,00:46:30,28.1,52.6,241,500,574,521,0,2,0,50,42,19,44,2,1,50,0.0,0.0,25.039288,121.612939,0,0,0,0,0,0,0,0,0,0,0,0,0,00000000
0C9A4249DB60,2020-04-09,00:46:45,28.1,52.6,240,499,580,522,0,2,1,50,38,32,42,2,1,50,0.0,0.0,25.039288,121.612939,0,0,0,0,0,0,0,0,0,0,0,0,0,00000000
0C9A4249DB60,2020-04-09,00:47:00,28.1,52.6,242,505,583,521,0,2,1,50,54,30,60,2,1,50,0.0,0.0,25.039288,121.612939,0,0,0,0,0,0,0,0,0,0,0,0,0,00000000
0C9A4249DB60,2020-04-09,00:47:15,28.1,52.6,242,501,583,521,0,2,1,50,42,32,52,2,1,50,0.0,0.0,25.039288,121.612939,0,0,0,0,0,0,0,0,0,0,0,0,0,00000000
0C9A4249DB60,2020-04-09,00:47:30,28.1,52.6,241,498,583,521,0,2,1,50,28,38,42,2,1,50,0.0,0.0,25.039288,121.612939,0,0,0,0,0,0,0,0,0,0,0,0,0,00000000
0C9A4249DB60,2020-04-09,00:47:45,28.1,52.6,241,495,579,521,0,2,1,50,30,32,30,2,1,50,0.0,0.0,25.039288,121.612939,0,0,0,0,0,0,0,0,0,0,0,0,0,00000000
0C9A4249DB60,2020-04-09,00:48:00,28.1,52.6,240,491,576,520,0,2,1,50,38,32,34,2,1,50,0.0,0.0,25.039288,121.612939,0,0,0,0,0,0,0,0,0,0,0,0,0,00000000
0C9A4249DB60,2020-04-09,00:48:15,28.1,52.6,235,484,567,520,0,2,1,50,48,20,32,2,1,50,0.0,0.0,25.039288,121.612939,0,0,0,0,0,0,0,0,0,0,0,0,0,00000000
0C9A4249DB60,2020-04-09,00:48:30,28.1,52.6,233,483,571,520,0,2,1,50,40,28,38,2,1,50,0.0,0.0,25.039288,121.612939,0,0,0,0,0,0,0,0,0,0,0,0,0,00000000
0C9A4249DB60,2020-04-09,00:48:45,28.1,52.6,235,486,577,520,0,2,1,50,50,26,44,2,1,50,0.0,0.0,25.039288,121.612939,0,0,0,0,0,0,0,0,0,0,0,0,0,00000000
0C9A4249DB60,2020-04-09,00:49:00,28.1,52.6,233,484,576,520,0,2,1,50,31,18,40,1,1,50,0.0,0.0,25.039288,121.612939,0,0,0,0,0,0,0,0,0,0,0,0,0,00000000
0C9A4249DB60,2020-04-09,00:49:15,28.1,52.6,239,487,574,520,0,1,1,50,26,24,46,1,1,50,0.0,0.0,25.039288,121.612939,0,0,0,0,0,0,0,0,0,0,0,0,0,00000000
0C9A4249DB60,2020-04-09,00:49:30,28.1,52.6,238,486,570,519,0,1,1,50,37,26,26,2,1,50,0.0,0.0,25.039288,121.612939,0,0,0,0,0,0,0,0,0,0,0,0,0,00000000
0C9A4249DB60,2020-04-09,00:49:45,28.1,52.5,238,489,565,519,0,2,1,50,42,34,35,2,1,49,0.0,0.0,25.039288,121.612939,0,0,0,0,0,0,0,0,0,0,0,0,0,00000000
0C9A4249DB60,2020-04-09,00:50:00,28.1,52.6,235,489,563,519,0,2,1,49,54,26,31,2,1,50,0.0,0.0,25.039288,121.612939,0,0,0,0,0,0,0,0,0,0,0,0,0,00000000
0C9A4249DB60,2020-04-09,00:50:15,28.1,52.6,233,488,571,520,0,2,1,50,26,18,29,2,1,49,0.0,0.0,25.039288,121.612939,0,0,0,0,0,0,0,0,0,0,0,0,0,00000000
0C9A4249DB60,2020-04-09,00:50:30,28.1,52.6,234,483,575,520,0,2,1,49,34,24,37,2,1,50,0.0,0.0,25.039288,121.612939,0,0,0,0,0,0,0,0,0,0,0,0,0,00000000
0C9A4249DB60,2020-04-09,00:50:45,28.1,52.6,240,493,594,520,0,2,1,50,56,22,40,2,1,50,0.0,0.0,25.039288,121.612939,0,0,0,0,0,0,0,0,0,0,0,0,0,00000000
0C9A4249DB60,2020-04-09,00:51:00,28.1,52.6,235,488,583,520,0,2,1,50,42,26,42,2,1,50,0.0,0.0,25.039288,121.612939,0,0,0,0,0,0,0,0,0,0,0,0,0,00000000
0C9A4249DB60,2020-04-09,00:51:15,28.1,52.6,234,485,573,519,0,2,1,50,42,34,42,2,1,50,0.0,0.0,25.039288,121.612939,0,0,0,0,0,0,0,0,0,0,0,0,0,00000000
0C9A4249DB60,2020-04-09,00:51:30,28.1,52.6,236,489,573,519,0,2,1,50,44,24,41,2,1,51,0.0,0.0,25.039288,121.612939,0,0,0,0,0,0,0,0,0,0,0,0,0,00000000
0C9A4249DB60,2020-04-09,00:51:45,28.1,52.6,233,485,567,519,0,2,1,51,46,18,39,2,1,50,0.0,0.0,25.039288,121.612939,0,0,0,0,0,0,0,0,0,0,0,0,0,00000000
0C9A4249DB60,2020-04-09,00:52:00,28.1,52.6,238,487,569,519,0,2,1,50,28,26,36,2,1,50,0.0,0.0,25.039288,121.612939,0,0,0,0,0,0,0,0,0,0,0,0,0,00000000
0C9A4249DB60,2020-04-09,00:52:15,28.1,52.6,239,482,571,519,0,2,1,50,42,16,40,2,1,50,0.0,0.0,25.039288,121.612939,0,0,0,0,0,0,0,0,0,0,0,0,0,00000000
0C9A4249DB60,2020-04-09,00:52:30,28.1,52.6,238,485,570,520,0,2,1,50,37,18,35,1,1,49,0.0,0.0,25.039288,121.612939,0,0,0,0,0,0,0,0,0,0,0,0,0,00000000
0C9A4249DB60,2020-04-09,00:52:45,28.1,52.6,236,486,577,520,0,1,1,49,37,20,39,2,1,50,0.0,0.0,25.039288,121.612939,0,0,0,0,0,0,0,0,0,0,0,0,0,00000000
0C9A4249DB60,2020-04-09,00:53:00,28.1,52.6,236,492,587,521,0,2,1,50,46,20,40,2,1,50,0.0,0.0,25.039288,121.612939,0,0,0,0,0,0,0,0,0,0,0,0,0,00000000
0C9A4249DB60,2020-04-09,00:53:15,28.1,52.6,233,487,581,522,0,2,1,50,43,20,26,1,1,50,0.0,0.0,25.039288,121.612939,0,0,0,0,0,0,0,0,0,0,0,0,0,00000000
0C9A4249DB60,2020-04-09,00:53:30,28.1,52.6,233,482,567,522,0,1,1,50,41,24,42,2,1,50,0.0,0.0,25.039288,121.612939,0,0,0,0,0,0,0,0,0,0,0,0,0,00000000
0C9A4249DB60,2020-04-09,00:53:45,28.1,52.6,233,480,562,520,0,2,1,50,42,20,32,2,1,50,0.0,0.0,25.039288,121.612939,0,0,0,0,0,0,0,0,0,0,0,0,0,00000000
0C9A4249DB60,2020-04-09,00:54:00,28.1,52.6,233,484,568,520,0,2,1,50,42,16,37,2,1,49,0.0,0.0,25.039288,121.612939,0,0,0,0,0,0,0,0,0,0,0,0,0,00000000
0C9A4249DB60,2020-04-09,00:54:15,28.1,52.6,233,481,570,520,0,2,1,49,26,6,35,2,1,50,0.0,0.0,25.039288,121.612939,0,0,0,0,0,0,0,0,0,0,0,0,0,00000000
0C9A4249DB60,2020-04-09,00:54:30,28.1,52.6,232,484,575,520,0,2,1,50,40,18,44,2,1,50,0.0,0.0,25.039288,121.612939,0,0,0,0,0,0,0,0,0,0,0,0,0,00000000
0C9A4249DB60,2020-04-09,00:54:45,28.1,52.6,233,479,573,521,0,2,1,50,30,22,38,2,1,50,0.0,0.0,25.039288,121.612939,0,0,0,0,0,0,0,0,0,0,0,0,0,00000000
0C9A4249DB60,2020-04-09,00:55:00,28.1,52.6,233,474,568,520,0,2,1,50,42,16,38,2,1,50,0.0,0.0,25.039288,121.612939,0,0,0,0,0,0,0,0,0,0,0,0,0,00000000
0C9A4249DB60,2020-04-09,00:55:15,28.1,52.6,235,481,566,521,0,2,1,50,40,18,42,2,1,50,0.0,0.0,25.039288,121.612939,0,0,0,0,0,0,0,0,0,0,0,0,0,00000000
0C9A4249DB60,2020-04-09,00:55:30,28.1,52.6,235,483,567,520,0,2,1,50,32,22,28,2,1,50,0.0,0.0,25.039288,121.612939,0,0,0,0,0,0,0,0,0,0,0,0,0,00000000
0C9A4249DB60,2020-04-09,00:55:45,28.1,52.6,239,489,563,520,0,2,1,50,46,26,38,2,1,50,0.0,0.0,25.039288,121.612939,0,0,0,0,0,0,0,0,0,0,0,0,0,00000000
0C9A4249DB60,2020-04-09,00:56:00,28.1,52.6,236,486,563,521,0,2,1,50,28,16,30,2,1,50,0.0,0.0,25.039288,121.612939,0,0,0,0,0,0,0,0,0,0,0,0,0,00000000
0C9A4249DB60,2020-04-09,00:56:15,28.1,52.6,240,496,577,520,0,2,1,50,26,20,38,2,1,50,0.0,0.0,25.039288,121.612939,0,0,0,0,0,0,0,0,0,0,0,0,0,00000000
0C9A4249DB60,2020-04-09,00:56:30,28.2,52.6,233,487,572,519,0,2,1,50,36,26,34,2,1,50,0.0,0.0,25.039288,121.612939,0,0,0,0,0,0,0,0,0,0,0,0,0,00000000
0C9A4249DB60,2020-04-09,00:56:45,28.1,52.6,233,489,585,519,0,2,1,50,57,28,34,1,1,50,0.0,0.0,25.039288,121.612939,0,0,0,0,0,0,0,0,0,0,0,0,0,00000000
0C9A4249DB60,2020-04-09,00:57:00,28.1,52.6,231,487,587,518,0,1,1,50,55,14,42,2,1,50,0.0,0.0,25.039288,121.612939,0,0,0,0,0,0,0,0,0,0,0,0,0,00000000
0C9A4249DB60,2020-04-09,00:57:15,28.1,52.6,233,487,581,519,0,2,1,50,34,16,38,2,1,50,0.0,0.0,25.039288,121.612939,0,0,0,0,0,0,0,0,0,0,0,0,0,00000000
0C9A4249DB60,2020-04-09,00:57:30,28.1,52.6,237,487,573,519,0,2,1,50,40,22,38,2,1,50,0.0,0.0,25.039288,121.612939,0,0,0,0,0,0,0,0,0,0,0,0,0,00000000
0C9A4249DB60,2020-04-09,00:57:45,28.1,52.5,237,487,570,519,0,2,1,50,34,15,35,2,0,51,0.0,0.0,25.039288,121.612939,0,0,0,0,0,0,0,0,0,0,0,0,0,00000000
0C9A4249DB60,2020-04-09,00:58:00,28.2,52.6,236,481,567,519,0,2,0,51,42,39,41,2,1,50,0.0,0.0,25.039288,121.612939,0,0,0,0,0,0,0,0,0,0,0,0,0,00000000
0C9A4249DB60,2020-04-09,00:58:15,28.1,52.6,232,477,565,521,0,2,1,50,50,12,26,2,1,50,0.0,0.0,25.039288,121.612939,0,0,0,0,0,0,0,0,0,0,0,0,0,00000000
0C9A4249DB60,2020-04-09,00:58:30,28.1,52.6,231,474,559,520,0,2,1,50,34,41,48,2,2,50,0.0,0.0,25.039288,121.612939,0,0,0,0,0,0,0,0,0,0,0,0,0,00000000
0C9A4249DB60,2020-04-09,00:58:45,28.1,52.6,231,477,561,521,0,2,2,50,52,21,40,2,1,50,0.0,0.0,25.039288,121.612939,0,0,0,0,0,0,0,0,0,0,0,0,0,00000000
0C9A4249DB60,2020-04-09,00:59:00,28.1,52.6,232,478,557,521,0,2,1,50,42,30,26,2,1,50,0.0,0.0,25.039288,121.612939,0,0,0,0,0,0,0,0,0,0,0,0,0,00000000
0C9A4249DB60,2020-04-09,00:59:15,28.1,52.6,231,479,564,521,0,2,1,50,50,30,36,2,1,50,0.0,0.0,25.039288,121.612939,0,0,0,0,0,0,0,0,0,0,0,0,0,00000000
0C9A4249DB60,2020-04-09,00:59:30,28.1,52.6,231,475,557,520,0,2,1,50,45,34,50,1,1,50,0.0,0.0,25.039288,121.612939,0,0,0,0,0,0,0,0,0,0,0,0,0,00000000
0C9A4249DB60,2020-04-09,00:59:45,28.1,52.6,229,468,561,519,0,1,1,50,49,25,56,2,0,50,0.0,0.0,25.039288,121.612939,0,0,0,0,0,0,0,0,0,0,0,0,0,00000000
0C9A4249DB60,2020-04-09,01:00:00,28.1,52.6,232,468,556,519,0,2,0,50,38,32,44,2,0,50,0.0,0.0,25.039288,121.612939,0,0,0,0,0,0,0,0,0,0,0,0,0,00000000
0C9A4249DB60,2020-04-09,01:00:15,28.1,52.6,233,469,563,519,0,2,0,50,42,34,38,2,0,50,0.0,0.0,25.039288,121.612939,0,0,0,0,0,0,0,0,0,0,0,0,0,00000000
0C9A4249DB60,2020-04-09,01:00:30,28.1,52.6,233,473,573,519,0,2,0,50,56,21,46,2,1,50,0.0,0.0,25.039288,121.612939,0,0,0,0,0,0,0,0,0,0,0,0,0,00000000
0C9A4249DB60,2020-04-09,01:00:45,28.1,52.6,231,473,574,520,0,2,1,50,44,24,26,2,1,50,0.0,0.0,25.039288,121.612939,0,0,0,0,0,0,0,0,0,0,0,0,0,00000000
0C9A4249DB60,2020-04-09,01:01:00,28.1,52.6,231,476,571,520,0,2,1,50,42,36,44,2,1,50,0.0,0.0,25.039288,121.612939,0,0,0,0,0,0,0,0,0,0,0,0,0,00000000
0C9A4249DB60,2020-04-09,01:01:15,28.1,52.6,231,475,559,520,0,2,1,50,52,26,30,2,1,50,0.0,0.0,25.039288,121.612939,0,0,0,0,0,0,0,0,0,0,0,0,0,00000000
0C9A4249DB60,2020-04-09,01:01:30,28.1,52.6,233,479,560,521,0,2,1,50,46,26,35,2,1,49,0.0,0.0,25.039288,121.612939,0,0,0,0,0,0,0,0,0,0,0,0,0,00000000
0C9A4249DB60,2020-04-09,01:01:45,28.1,52.6,231,475,559,520,0,2,1,49,28,30,27,2,1,50,0.0,0.0,25.039288,121.612939,0,0,0,0,0,0,0,0,0,0,0,0,0,00000000
0C9A4249DB60,2020-04-09,01:02:00,28.1,52.6,231,474,561,521,0,2,1,50,32,15,48,2,2,50,0.0,0.0,25.039288,121.612939,0,0,0,0,0,0,0,0,0,0,0,0,0,00000000
0C9A4249DB60,2020-04-09,01:02:15,28.1,52.6,232,479,565,522,0,2,2,50,50,33,36,2,1,50,0.0,0.0,25.039288,121.612939,0,0,0,0,0,0,0,0,0,0,0,0,0,00000000
0C9A4249DB60,2020-04-09,01:02:30,28.1,52.6,233,477,563,523,0,2,1,50,42,24,44,2,1,50,0.0,0.0,25.039288,121.612939,0,0,0,0,0,0,0,0,0,0,0,0,0,00000000
0C9A4249DB60,2020-04-09,01:02:45,28.1,52.6,232,477,558,522,0,2,1,50,47,26,34,1,1,50,0.0,0.0,25.039288,121.612939,0,0,0,0,0,0,0,0,0,0,0,0,0,00000000
0C9A4249DB60,2020-04-09,01:03:00,28.1,52.6,233,485,571,523,0,1,1,50,47,20,30,2,1,50,0.0,0.0,25.039288,121.612939,0,0,0,0,0,0,0,0,0,0,0,0,0,00000000
0C9A4249DB60,2020-04-09,01:03:15,28.1,52.6,229,475,563,522,0,2,1,50,38,32,50,2,1,50,0.0,0.0,25.039288,121.612939,0,0,0,0,0,0,0,0,0,0,0,0,0,00000000
0C9A4249DB60,2020-04-09,01:03:30,28.1,52.5,231,475,563,523,0,2,1,50,26,16,34,2,1,50,0.0,0.0,25.039288,121.612939,0,0,0,0,0,0,0,0,0,0,0,0,0,00000000
0C9A4249DB60,2020-04-09,01:03:45,28.2,52.6,237,475,562,523,0,2,1,50,49,30,30,1,1,50,0.0,0.0,25.039288,121.612939,0,0,0,0,0,0,0,0,0,0,0,0,0,00000000
0C9A4249DB60,2020-04-09,01:04:00,28.1,52.6,237,467,553,523,0,1,1,50,47,38,38,2,1,50,0.0,0.0,25.039288,121.612939,0,0,0,0,0,0,0,0,0,0,0,0,0,00000000
0C9A4249DB60,2020-04-09,01:04:15,28.1,52.6,236,470,559,523,0,2,1,50,54,24,33,2,1,49,0.0,0.0,25.039288,121.612939,0,0,0,0,0,0,0,0,0,0,0,0,0,00000000
0C9A4249DB60,2020-04-09,01:04:30,28.1,52.6,237,477,568,522,0,2,1,49,48,34,31,2,1,50,0.0,0.0,25.039288,121.612939,0,0,0,0,0,0,0,0,0,0,0,0,0,00000000
0C9A4249DB60,2020-04-09,01:04:45,28.1,52.6,233,471,565,522,0,2,1,50,58,34,24,2,1,50,0.0,0.0,25.039288,121.612939,0,0,0,0,0,0,0,0,0,0,0,0,0,00000000
0C9A4249DB60,2020-04-09,01:05:00,28.1,52.6,232,474,559,523,0,2,1,50,46,26,44,2,1,50,0.0,0.0,25.039288,121.612939,0,0,0,0,0,0,0,0,0,0,0,0,0,00000000
0C9A4249DB60,2020-04-09,01:05:15,28.1,52.5,229,469,559,524,0,2,1,50,34,26,27,2,1,51,0.0,0.0,25.039288,121.612939,0,0,0,0,0,0,0,0,0,0,0,0,0,00000000
0C9A4249DB60,2020-04-09,01:05:30,28.1,52.6,231,470,550,524,0,2,1,51,55,21,41,1,2,50,0.0,0.0,25.039288,121.612939,0,0,0,0,0,0,0,0,0,0,0,0,0,00000000
0C9A4249DB60,2020-04-09,01:05:45,28.1,52.6,227,471,552,523,0,1,2,50,53,31,42,2,1,50,0.0,0.0,25.039288,121.612939,0,0,0,0,0,0,0,0,0,0,0,0,0,00000000
0C9A4249DB60,2020-04-09,01:06:00,28.1,52.6,229,474,553,522,0,2,1,50,22,22,40,2,1,50,0.0,0.0,25.039288,121.612939,0,0,0,0,0,0,0,0,0,0,0,0,0,00000000
0C9A4249DB60,2020-04-09,01:06:15,28.1,52.6,230,471,545,521,0,2,1,50,52,26,30,2,1,50,0.0,0.0,25.039288,121.612939,0,0,0,0,0,0,0,0,0,0,0,0,0,00000000
0C9A4249DB60,2020-04-09,01:06:30,28.1,52.6,231,469,545,520,0,2,1,50,42,28,28,2,1,50,0.0,0.0,25.039288,121.612939,0,0,0,0,0,0,0,0,0,0,0,0,0,00000000
0C9A4249DB60,2020-04-09,01:06:45,28.2,52.6,229,461,537,521,0,2,1,50,30,33,46,2,0,50,0.0,0.0,25.039288,121.612939,0,0,0,0,0,0,0,0,0,0,0,0,0,00000000
0C9A4249DB60,2020-04-09,01:07:00,28.1,52.6,231,471,546,520,0,2,0,50,46,23,38,2,1,50,0.0,0.0,25.039288,121.612939,0,0,0,0,0,0,0,0,0,0,0,0,0,00000000
0C9A4249DB60,2020-04-09,01:07:15,28.1,52.6,233,473,545,520,0,2,1,50,50,18,52,2,1,50,0.0,0.0,25.039288,121.612939,0,0,0,0,0,0,0,0,0,0,0,0,0,00000000
0C9A4249DB60,2020-04-09,01:07:30,28.1,52.6,229,476,555,519,0,2,1,50,38,26,24,2,1,50,0.0,0.0,25.039288,121.612939,0,0,0,0,0,0,0,0,0,0,0,0,0,00000000
0C9A4249DB60,2020-04-09,01:07:45,28.1,52.6,230,469,552,520,0,2,1,50,36,16,38,2,1,50,0.0,0.0,25.039288,121.612939,0,0,0,0,0,0,0,0,0,0,0,0,0,00000000
0C9A4249DB60,2020-04-09,01:08:00,28.1,52.6,228,471,549,520,0,2,1,50,32,18,41,2,1,49,0.0,0.0,25.039288,121.612939,0,0,0,0,0,0,0,0,0,0,0,0,0,00000000
0C9A4249DB60,2020-04-09,01:08:15,28.1,52.6,227,469,548,520,0,2,1,49,36,22,43,2,1,50,0.0,0.0,25.039288,121.612939,0,0,0,0,0,0,0,0,0,0,0,0,0,00000000
0C9A4249DB60,2020-04-09,01:08:30,28.1,52.5,229,475,553,520,0,2,1,50,34,28,37,2,1,51,0.0,0.0,25.039288,121.612939,0,0,0,0,0,0,0,0,0,0,0,0,0,00000000
0C9A4249DB60,2020-04-09,01:08:45,28.1,52.6,227,468,548,519,0,2,1,51,38,16,37,2,1,50,0.0,0.0,25.039288,121.612939,0,0,0,0,0,0,0,0,0,0,0,0,0,00000000
0C9A4249DB60,2020-04-09,01:09:00,28.1,52.5,228,471,548,519,0,2,1,50,36,24,42,2,1,50,0.0,0.0,25.039288,121.612939,0,0,0,0,0,0,0,0,0,0,0,0,0,00000000
0C9A4249DB60,2020-04-09,01:09:15,28.1,52.6,229,468,551,519,0,2,1,50,35,20,48,1,1,50,0.0,0.0,25.039288,121.612939,0,0,0,0,0,0,0,0,0,0,0,0,0,00000000
0C9A4249DB60,2020-04-09,01:09:30,28.1,52.5,230,471,556,519,0,1,1,50,45,40,36,2,1,50,0.0,0.0,25.039288,121.612939,0,0,0,0,0,0,0,0,0,0,0,0,0,00000000
0C9A4249DB60,2020-04-09,01:09:45,28.1,52.6,229,474,551,519,0,2,1,50,34,20,41,2,1,51,0.0,0.0,25.039288,121.612939,0,0,0,0,0,0,0,0,0,0,0,0,0,00000000
0C9A4249DB60,2020-04-09,01:10:00,28.1,52.5,230,477,549,520,0,2,1,51,38,20,25,2,1,50,0.0,0.0,25.039288,121.612939,0,0,0,0,0,0,0,0,0,0,0,0,0,00000000
0C9A4249DB60,2020-04-09,01:10:15,28.1,52.5,228,475,544,521,0,2,1,50,36,36,31,2,1,49,0.0,0.0,25.039288,121.612939,0,0,0,0,0,0,0,0,0,0,0,0,0,00000000
0C9A4249DB60,2020-04-09,01:10:30,28.1,52.6,226,468,536,521,0,2,1,49,48,22,42,2,1,49,0.0,0.0,25.039288,121.612939,0,0,0,0,0,0,0,0,0,0,0,0,0,00000000
0C9A4249DB60,2020-04-09,01:10:45,28.1,52.6,224,465,537,521,0,2,1,49,26,26,43,2,1,50,0.0,0.0,25.039288,121.612939,0,0,0,0,0,0,0,0,0,0,0,0,0,00000000
0C9A4249DB60,2020-04-09,01:11:00,28.1,52.6,223,461,541,521,0,2,1,50,46,24,37,2,1,49,0.0,0.0,25.039288,121.612939,0,0,0,0,0,0,0,0,0,0,0,0,0,00000000
0C9A4249DB60,2020-04-09,01:11:15,28.1,52.6,224,457,549,521,0,2,1,49,36,20,31,2,1,50,0.0,0.0,25.039288,121.612939,0,0,0,0,0,0,0,0,0,0,0,0,0,00000000
0C9A4249DB60,2020-04-09,01:11:30,28.1,52.6,226,461,552,521,0,2,1,50,48,28,57,2,1,49,0.0,0.0,25.039288,121.612939,0,0,0,0,0,0,0,0,0,0,0,0,0,00000000
0C9A4249DB60,2020-04-09,01:11:45,28.1,52.6,225,455,546,521,0,2,1,49,34,14,33,2,1,50,0.0,0.0,25.039288,121.612939,0,0,0,0,0,0,0,0,0,0,0,0,0,00000000
0C9A4249DB60,2020-04-09,01:12:00,28.1,52.6,227,461,547,521,0,2,1,50,38,24,35,2,1,49,0.0,0.0,25.039288,121.612939,0,0,0,0,0,0,0,0,0,0,0,0,0,00000000
0C9A4249DB60,2020-04-09,01:12:15,28.1,52.6,226,461,541,521,0,2,1,49,34,18,41,2,1,50,0.0,0.0,25.039288,121.612939,0,0,0,0,0,0,0,0,0,0,0,0,0,00000000
0C9A4249DB60,2020-04-09,01:12:30,28.1,52.6,226,464,541,521,0,2,1,50,36,32,30,2,1,50,0.0,0.0,25.039288,121.612939,0,0,0,0,0,0,0,0,0,0,0,0,0,00000000
0C9A4249DB60,2020-04-09,01:12:45,28.1,52.6,224,465,551,522,0,2,1,50,52,26,46,2,1,50,0.0,0.0,25.039288,121.612939,0,0,0,0,0,0,0,0,0,0,0,0,0,00000000
0C9A4249DB60,2020-04-09,01:13:00,28.1,52.5,221,464,553,522,0,2,1,50,38,16,40,2,1,50,0.0,0.0,25.039288,121.612939,0,0,0,0,0,0,0,0,0,0,0,0,0,00000000
0C9A4249DB60,2020-04-09,01:13:15,28.1,52.5,222,463,557,522,0,2,1,50,45,40,24,1,1,50,0.0,0.0,25.039288,121.612939,0,0,0,0,0,0,0,0,0,0,0,0,0,00000000
0C9A4249DB60,2020-04-09,01:13:30,28.1,52.6,229,471,560,521,0,1,1,50,45,30,34,2,1,50,0.0,0.0,25.039288,121.612939,0,0,0,0,0,0,0,0,0,0,0,0,0,00000000
0C9A4249DB60,2020-04-09,01:13:45,28.1,52.6,226,462,546,521,0,2,1,50,38,16,32,2,1,50,0.0,0.0,25.039288,121.612939,0,0,0,0,0,0,0,0,0,0,0,0,0,00000000
0C9A4249DB60,2020-04-09,01:14:00,28.1,52.6,229,459,541,521,0,2,1,50,38,28,36,2,1,50,0.0,0.0,25.039288,121.612939,0,0,0,0,0,0,0,0,0,0,0,0,0,00000000
0C9A4249DB60,2020-04-09,01:14:15,28.1,52.6,228,457,544,521,0,2,1,50,48,20,52,2,1,50,0.0,0.0,25.039288,121.612939,0,0,0,0,0,0,0,0,0,0,0,0,0,00000000
0C9A4249DB60,2020-04-09,01:14:30,28.1,52.6,229,458,550,521,0,2,1,50,50,28,36,2,1,50,0.0,0.0,25.039288,121.612939,0,0,0,0,0,0,0,0,0,0,0,0,0,00000000
0C9A4249DB60,2020-04-09,01:14:45,28.1,52.6,229,465,559,521,0,2,1,50,38,20,26,2,1,50,0.0,0.0,25.039288,121.612939,0,0,0,0,0,0,0,0,0,0,0,0,0,00000000
0C9A4249DB60,2020-04-09,01:15:00,28.1,52.6,228,465,551,521,0,2,1,50,41,24,30,1,1,50,0.0,0.0,25.039288,121.612939,0,0,0,0,0,0,0,0,0,0,0,0,0,00000000
0C9A4249DB60,2020-04-09,01:15:15,28.1,52.6,227,467,558,522,0,1,1,50,35,28,43,2,1,49,0.0,0.0,25.039288,121.612939,0,0,0,0,0,0,0,0,0,0,0,0,0,00000000
0C9A4249DB60,2020-04-09,01:15:30,28.1,52.6,225,465,549,521,0,2,1,49,46,22,47,2,1,50,0.0,0.0,25.039288,121.612939,0,0,0,0,0,0,0,0,0,0,0,0,0,00000000
0C9A4249DB60,2020-04-09,01:15:45,28.1,52.6,224,465,552,520,0,2,1,50,34,22,30,2,1,50,0.0,0.0,25.039288,121.612939,0,0,0,0,0,0,0,0,0,0,0,0,0,00000000
0C9A4249DB60,2020-04-09,01:16:00,28.2,52.6,226,467,547,519,0,2,1,50,49,20,36,1,1,50,0.0,0.0,25.039288,121.612939,0,0,0,0,0,0,0,0,0,0,0,0,0,00000000
0C9A4249DB60,2020-04-09,01:16:15,28.1,52.5,227,467,548,520,0,1,1,50,40,22,46,1,1,50,0.0,0.0,25.039288,121.612939,0,0,0,0,0,0,0,0,0,0,0,0,0,00000000
0C9A4249DB60,2020-04-09,01:16:30,28.1,52.6,227,465,547,519,0,1,1,50,52,20,35,1,1,51,0.0,0.0,25.039288,121.612939,0,0,0,0,0,0,0,0,0,0,0,0,0,00000000
0C9A4249DB60,2020-04-09,01:16:45,28.2,52.6,225,457,537,519,0,1,1,51,37,16,35,2,1,50,0.0,0.0,25.039288,121.612939,0,0,0,0,0,0,0,0,0,0,0,0,0,00000000
0C9A4249DB60,2020-04-09,01:17:00,28.1,52.6,223,456,531,519,0,2,1,50,40,28,42,2,1,50,0.0,0.0,25.039288,121.612939,0,0,0,0,0,0,0,0,0,0,0,0,0,00000000
0C9A4249DB60,2020-04-09,01:17:15,28.1,52.6,223,453,532,521,0,2,1,50,34,26,44,2,1,50,0.0,0.0,25.039288,121.612939,0,0,0,0,0,0,0,0,0,0,0,0,0,00000000
0C9A4249DB60,2020-04-09,01:17:30,28.1,52.6,221,452,539,521,0,2,1,50,48,20,44,2,1,50,0.0,0.0,25.039288,121.612939,0,0,0,0,0,0,0,0,0,0,0,0,0,00000000
0C9A4249DB60,2020-04-09,01:17:45,28.1,52.6,223,457,541,522,0,2,1,50,44,34,36,2,1,50,0.0,0.0,25.039288,121.612939,0,0,0,0,0,0,0,0,0,0,0,0,0,00000000
0C9A4249DB60,2020-04-09,01:18:00,28.1,52.6,223,460,540,522,0,2,1,50,38,20,40,2,1,50,0.0,0.0,25.039288,121.612939,0,0,0,0,0,0,0,0,0,0,0,0,0,00000000
0C9A4249DB60,2020-04-09,01:18:15,28.2,52.5,226,459,533,522,0,2,1,50,28,32,28,2,1,50,0.0,0.0,25.039288,121.612939,0,0,0,0,0,0,0,0,0,0,0,0,0,00000000
0C9A4249DB60,2020-04-09,01:18:30,28.1,52.6,225,460,534,522,0,2,1,50,30,22,35,2,1,49,0.0,0.0,25.039288,121.612939,0,0,0,0,0,0,0,0,0,0,0,0,0,00000000
0C9A4249DB60,2020-04-09,01:18:45,28.1,52.5,225,454,531,521,0,2,1,49,52,20,32,2,1,49,0.0,0.0,25.039288,121.612939,0,0,0,0,0,0,0,0,0,0,0,0,0,00000000
0C9A4249DB60,2020-04-09,01:19:00,28.2,52.6,222,454,533,521,0,2,1,49,36,20,39,2,1,50,0.0,0.0,25.039288,121.612939,0,0,0,0,0,0,0,0,0,0,0,0,0,00000000
0C9A4249DB60,2020-04-09,01:19:15,28.1,52.6,221,457,526,522,0,2,1,50,32,16,40,2,1,50,0.0,0.0,25.039288,121.612939,0,0,0,0,0,0,0,0,0,0,0,0,0,00000000
0C9A4249DB60,2020-04-09,01:19:30,28.1,52.6,222,459,524,522,0,2,1,50,26,22,34,2,1,50,0.0,0.0,25.039288,121.612939,0,0,0,0,0,0,0,0,0,0,0,0,0,00000000
0C9A4249DB60,2020-04-09,01:19:45,28.1,52.6,222,457,541,520,0,2,1,50,24,24,26,2,1,50,0.0,0.0,25.039288,121.612939,0,0,0,0,0,0,0,0,0,0,0,0,0,00000000
0C9A4249DB60,2020-04-09,01:20:00,28.1,52.6,222,457,547,521,0,2,1,50,38,25,30,2,2,50,0.0,0.0,25.039288,121.612939,0,0,0,0,0,0,0,0,0,0,0,0,0,00000000
0C9A4249DB60,2020-04-09,01:20:15,28.1,52.5,220,454,546,521,0,2,2,50,30,23,42,2,1,50,0.0,0.0,25.039288,121.612939,0,0,0,0,0,0,0,0,0,0,0,0,0,00000000
0C9A4249DB60,2020-04-09,01:20:30,28.1,52.6,222,457,541,519,0,2,1,50,32,30,50,2,1,50,0.0,0.0,25.039288,121.612939,0,0,0,0,0,0,0,0,0,0,0,0,0,00000000
0C9A4249DB60,2020-04-09,01:20:45,28.1,52.6,230,464,547,520,0,2,1,50,42,20,34,2,1,50,0.0,0.0,25.039288,121.612939,0,0,0,0,0,0,0,0,0,0,0,0,0,00000000
0C9A4249DB60,2020-04-09,01:21:00,28.1,52.5,225,457,533,519,0,2,1,50,32,22,32,2,1,50,0.0,0.0,25.039288,121.612939,0,0,0,0,0,0,0,0,0,0,0,0,0,00000000
0C9A4249DB60,2020-04-09,01:21:15,28.1,52.6,223,456,531,519,0,2,1,50,34,30,22,2,1,50,0.0,0.0,25.039288,121.612939,0,0,0,0,0,0,0,0,0,0,0,0,0,00000000
0C9A4249DB60,2020-04-09,01:21:30,28.1,52.5,220,459,534,519,0,2,1,50,40,24,44,2,1,50,0.0,0.0,25.039288,121.612939,0,0,0,0,0,0,0,0,0,0,0,0,0,00000000
0C9A4249DB60,2020-04-09,01:21:45,28.1,52.6,220,457,536,519,0,2,1,50,28,22,30,2,1,50,0.0,0.0,25.039288,121.612939,0,0,0,0,0,0,0,0,0,0,0,0,0,00000000
0C9A4249DB60,2020-04-09,01:22:00,28.1,52.6,220,451,529,520,0,2,1,50,38,16,35,2,1,51,0.0,0.0,25.039288,121.612939,0,0,0,0,0,0,0,0,0,0,0,0,0,00000000
0C9A4249DB60,2020-04-09,01:22:15,28.2,52.6,222,449,525,520,0,2,1,51,34,20,33,2,1,50,0.0,0.0,25.039288,121.612939,0,0,0,0,0,0,0,0,0,0,0,0,0,00000000
0C9A4249DB60,2020-04-09,01:22:30,28.1,52.6,222,445,523,519,0,2,1,50,34,16,34,2,1,50,0.0,0.0,25.039288,121.612939,0,0,0,0,0,0,0,0,0,0,0,0,0,00000000
0C9A4249DB60,2020-04-09,01:22:45,28.2,52.6,223,447,526,519,0,2,1,50,48,16,60,2,1,50,0.0,0.0,25.039288,121.612939,0,0,0,0,0,0,0,0,0,0,0,0,0,00000000
0C9A4249DB60,2020-04-09,01:23:00,28.1,52.6,225,453,535,519,0,2,1,50,56,22,44,2,1,50,0.0,0.0,25.039288,121.612939,0,0,0,0,0,0,0,0,0,0,0,0,0,00000000
0C9A4249DB60,2020-04-09,01:23:15,28.1,52.6,225,458,541,520,0,2,1,50,46,16,30,2,1,50,0.0,0.0,25.039288,121.612939,0,0,0,0,0,0,0,0,0,0,0,0,0,00000000
0C9A4249DB60,2020-04-09,01:23:30,28.2,52.6,225,457,543,520,0,2,1,50,35,14,36,1,1,50,0.0,0.0,25.039288,121.612939,0,0,0,0,0,0,0,0,0,0,0,0,0,00000000
0C9A4249DB60,2020-04-09,01:23:45,28.1,52.5,226,468,554,519,0,1,1,50,37,24,26,2,1,50,0.0,0.0,25.039288,121.612939,0,0,0,0,0,0,0,0,0,0,0,0,0,00000000
0C9A4249DB60,2020-04-09,01:24:00,28.2,52.6,220,454,531,519,0,2,1,50,32,20,34,2,1,50,0.0,0.0,25.039288,121.612939,0,0,0,0,0,0,0,0,0,0,0,0,0,00000000
0C9A4249DB60,2020-04-09,01:24:15,28.1,52.6,221,451,534,519,0,2,1,50,46,22,38,2,1,50,0.0,0.0,25.039288,121.612939,0,0,0,0,0,0,0,0,0,0,0,0,0,00000000
0C9A4249DB60,2020-04-09,01:24:30,28.2,52.6,222,447,532,520,0,2,1,50,39,26,34,1,1,50,0.0,0.0,25.039288,121.612939,0,0,0,0,0,0,0,0,0,0,0,0,0,00000000
0C9A4249DB60,2020-04-09,01:24:45,28.1,52.6,222,451,537,520,0,1,1,50,51,34,42,2,1,50,0.0,0.0,25.039288,121.612939,0,0,0,0,0,0,0,0,0,0,0,0,0,00000000
0C9A4249DB60,2020-04-09,01:25:00,28.2,52.6,225,455,536,520,0,2,1,50,30,20,32,0,-1,50,0.0,0.0,25.039288,121.612939,0,0,0,0,0,0,0,0,0,0,0,0,0,00000000
0C9A4249DB60,2020-04-09,01:25:15,28.1,52.6,225,453,527,519,0,0,-1,50,56,34,36,2,1,50,0.0,0.0,25.039288,121.612939,0,0,0,0,0,0,0,0,0,0,0,0,0,00000000
0C9A4249DB60,2020-04-09,01:25:30,28.2,52.6,221,447,523,519,0,2,1,50,51,25,51,1,2,51,0.0,0.0,25.039288,121.612939,0,0,0,0,0,0,0,0,0,0,0,0,0,00000000
0C9A4249DB60,2020-04-09,01:25:45,28.1,52.6,219,446,523,519,0,1,2,51,53,27,47,2,1,50,0.0,0.0,25.039288,121.612939,0,0,0,0,0,0,0,0,0,0,0,0,0,00000000
0C9A4249DB60,2020-04-09,01:26:00,28.2,52.5,217,445,517,519,0,2,1,50,38,21,38,2,0,50,0.0,0.0,25.039288,121.612939,0,0,0,0,0,0,0,0,0,0,0,0,0,00000000
0C9A4249DB60,2020-04-09,01:26:15,28.1,52.6,217,449,522,519,0,2,0,50,38,27,14,2,1,50,0.0,0.0,25.039288,121.612939,0,0,0,0,0,0,0,0,0,0,0,0,0,00000000
0C9A4249DB60,2020-04-09,01:26:30,28.1,52.5,219,450,521,519,0,2,1,50,58,24,46,2,1,50,0.0,0.0,25.039288,121.612939,0,0,0,0,0,0,0,0,0,0,0,0,0,00000000
0C9A4249DB60,2020-04-09,01:26:45,28.2,52.6,217,449,531,519,0,2,1,50,50,22,34,2,1,50,0.0,0.0,25.039288,121.612939,0,0,0,0,0,0,0,0,0,0,0,0,0,00000000
0C9A4249DB60,2020-04-09,01:27:00,28.1,52.5,218,453,539,519,0,2,1,50,31,24,42,1,1,50,0.0,0.0,25.039288,121.612939,0,0,0,0,0,0,0,0,0,0,0,0,0,00000000
0C9A4249DB60,2020-04-09,01:27:15,28.1,52.6,217,450,535,519,0,1,1,50,35,24,42,2,1,50,0.0,0.0,25.039288,121.612939,0,0,0,0,0,0,0,0,0,0,0,0,0,00000000
0C9A4249DB60,2020-04-09,01:27:30,28.1,52.5,217,447,524,519,0,2,1,50,36,16,34,2,1,50,0.0,0.0,25.039288,121.612939,0,0,0,0,0,0,0,0,0,0,0,0,0,00000000
0C9A4249DB60,2020-04-09,01:27:45,28.2,52.5,218,439,511,519,0,2,1,50,44,26,34,2,1,50,0.0,0.0,25.039288,121.612939,0,0,0,0,0,0,0,0,0,0,0,0,0,00000000
0C9A4249DB60,2020-04-09,01:28:00,28.1,52.6,218,443,519,519,0,2,1,50,36,24,44,2,1,50,0.0,0.0,25.039288,121.612939,0,0,0,0,0,0,0,0,0,0,0,0,0,00000000
0C9A4249DB60,2020-04-09,01:28:15,28.1,52.6,219,446,530,519,0,2,1,50,42,16,24,2,1,50,0.0,0.0,25.039288,121.612939,0,0,0,0,0,0,0,0,0,0,0,0,0,00000000
0C9A4249DB60,2020-04-09,01:28:30,28.1,52.6,221,442,529,519,0,2,1,50,30,18,34,2,1,50,0.0,0.0,25.039288,121.612939,0,0,0,0,0,0,0,0,0,0,0,0,0,00000000
0C9A4249DB60,2020-04-09,01:28:45,28.1,52.6,221,443,531,519,0,2,1,50,46,26,52,2,1,50,0.0,0.0,25.039288,121.612939,0,0,0,0,0,0,0,0,0,0,0,0,0,00000000
0C9A4249DB60,2020-04-09,01:29:00,28.1,52.6,219,443,529,519,0,2,1,50,46,36,39,2,1,49,0.0,0.0,25.039288,121.612939,0,0,0,0,0,0,0,0,0,0,0,0,0,00000000
0C9A4249DB60,2020-04-09,01:29:15,28.1,52.5,219,448,527,520,0,2,1,49,24,28,41,2,1,50,0.0,0.0,25.039288,121.612939,0,0,0,0,0,0,0,0,0,0,0,0,0,00000000
0C9A4249DB60,2020-04-09,01:29:30,28.1,52.5,218,443,516,520,0,2,1,50,52,23,28,2,2,50,0.0,0.0,25.039288,121.612939,0,0,0,0,0,0,0,0,0,0,0,0,0,00000000
0C9A4249DB60,2020-04-09,01:29:45,28.1,52.5,220,447,518,520,0,2,2,50,44,28,29,2,2,49,0.0,0.0,25.039288,121.612939,0,0,0,0,0,0,0,0,0,0,0,0,0,00000000
0C9A4249DB60,2020-04-09,01:30:00,28.1,52.6,219,448,522,521,0,2,2,49,58,31,49,2,1,50,0.0,0.0,25.039288,121.612939,0,0,0,0,0,0,0,0,0,0,0,0,0,00000000
0C9A4249DB60,2020-04-09,01:30:15,28.1,52.6,221,453,533,520,0,2,1,50,47,20,66,1,1,50,0.0,0.0,25.039288,121.612939,0,0,0,0,0,0,0,0,0,0,0,0,0,00000000
0C9A4249DB60,2020-04-09,01:30:30,28.1,52.5,221,451,528,521,0,1,1,50,43,26,34,2,1,50,0.0,0.0,25.039288,121.612939,0,0,0,0,0,0,0,0,0,0,0,0,0,00000000
0C9A4249DB60,2020-04-09,01:30:45,28.2,52.6,217,442,512,520,0,2,1,50,38,26,34,2,1,50,0.0,0.0,25.039288,121.612939,0,0,0,0,0,0,0,0,0,0,0,0,0,00000000
0C9A4249DB60,2020-04-09,01:31:00,28.1,52.6,221,453,539,520,0,2,1,50,28,16,50,2,1,50,0.0,0.0,25.039288,121.612939,0,0,0,0,0,0,0,0,0,0,0,0,0,00000000
0C9A4249DB60,2020-04-09,01:31:15,28.1,52.5,220,446,533,520,0,2,1,50,40,26,48,2,1,50,0.0,0.0,25.039288,121.612939,0,0,0,0,0,0,0,0,0,0,0,0,0,00000000
0C9A4249DB60,2020-04-09,01:31:30,28.1,52.6,218,443,529,520,0,2,1,50,43,14,39,3,1,51,0.0,0.0,25.039288,121.612939,0,0,0,0,0,0,0,0,0,0,0,0,0,00000000
0C9A4249DB60,2020-04-09,01:31:45,28.2,52.5,217,439,517,521,0,3,1,51,63,34,41,2,1,50,0.0,0.0,25.039288,121.612939,0,0,0,0,0,0,0,0,0,0,0,0,0,00000000
0C9A4249DB60,2020-04-09,01:32:00,28.1,52.6,217,436,510,520,0,2,1,50,32,18,41,2,1,51,0.0,0.0,25.039288,121.612939,0,0,0,0,0,0,0,0,0,0,0,0,0,00000000
0C9A4249DB60,2020-04-09,01:32:15,28.1,52.6,218,438,505,521,0,2,1,51,62,33,39,2,2,50,0.0,0.0,25.039288,121.612939,0,0,0,0,0,0,0,0,0,0,0,0,0,00000000
0C9A4249DB60,2020-04-09,01:32:30,28.1,52.6,218,437,507,521,0,2,2,50,38,39,50,2,1,50,0.0,0.0,25.039288,121.612939,0,0,0,0,0,0,0,0,0,0,0,0,0,00000000
0C9A4249DB60,2020-04-09,01:32:45,28.1,52.5,221,443,507,520,0,2,1,50,38,28,36,2,1,50,0.0,0.0,25.039288,121.612939,0,0,0,0,0,0,0,0,0,0,0,0,0,00000000
0C9A4249DB60,2020-04-09,01:33:00,28.1,52.6,220,445,514,521,0,2,1,50,52,18,29,2,1,49,0.0,0.0,25.039288,121.612939,0,0,0,0,0,0,0,0,0,0,0,0,0,00000000
0C9A4249DB60,2020-04-09,01:33:15,28.1,52.5,219,448,518,521,0,2,1,49,42,34,47,2,1,50,0.0,0.0,25.039288,121.612939,0,0,0,0,0,0,0,0,0,0,0,0,0,00000000
0C9A4249DB60,2020-04-09,01:33:30,28.1,52.6,217,450,525,521,0,2,1,50,45,22,30,3,1,50,0.0,0.0,25.039288,121.612939,0,0,0,0,0,0,0,0,0,0,0,0,0,00000000
0C9A4249DB60,2020-04-09,01:33:45,28.1,52.6,217,453,527,521,0,3,1,50,51,30,51,2,1,49,0.0,0.0,25.039288,121.612939,0,0,0,0,0,0,0,0,0,0,0,0,0,00000000
0C9A4249DB60,2020-04-09,01:34:00,28.2,52.6,217,447,527,521,0,2,1,49,26,14,41,2,1,50,0.0,0.0,25.039288,121.612939,0,0,0,0,0,0,0,0,0,0,0,0,0,00000000
0C9A4249DB60,2020-04-09,01:34:15,28.1,52.6,217,441,525,520,0,2,1,50,50,26,54,2,1,50,0.0,0.0,25.039288,121.612939,0,0,0,0,0,0,0,0,0,0,0,0,0,00000000
0C9A4249DB60,2020-04-09,01:34:30,28.1,52.6,218,438,519,519,0,2,1,50,44,24,42,2,1,50,0.0,0.0,25.039288,121.612939,0,0,0,0,0,0,0,0,0,0,0,0,0,00000000
0C9A4249DB60,2020-04-09,01:34:45,28.1,52.6,217,439,521,519,0,2,1,50,40,28,38,2,1,50,0.0,0.0,25.039288,121.612939,0,0,0,0,0,0,0,0,0,0,0,0,0,00000000
0C9A4249DB60,2020-04-09,01:35:00,28.1,52.6,219,442,524,519,0,2,1,50,38,18,36,2,1,50,0.0,0.0,25.039288,121.612939,0,0,0,0,0,0,0,0,0,0,0,0,0,00000000
0C9A4249DB60,2020-04-09,01:35:15,28.2,52.6,216,440,519,519,0,2,1,50,48,26,47,2,1,49,0.0,0.0,25.039288,121.612939,0,0,0,0,0,0,0,0,0,0,0,0,0,00000000
0C9A4249DB60,2020-04-09,01:35:30,28.1,52.6,216,437,520,519,0,2,1,49,37,12,43,1,1,50,0.0,0.0,25.039288,121.612939,0,0,0,0,0,0,0,0,0,0,0,0,0,00000000
0C9A4249DB60,2020-04-09,01:35:45,28.1,52.6,214,432,516,519,0,1,1,50,49,22,43,2,1,49,0.0,0.0,25.039288,121.612939,0,0,0,0,0,0,0,0,0,0,0,0,0,00000000
0C9A4249DB60,2020-04-09,01:36:00,28.1,52.6,215,435,523,519,0,2,1,49,50,24,43,2,1,50,0.0,0.0,25.039288,121.612939,0,0,0,0,0,0,0,0,0,0,0,0,0,00000000
0C9A4249DB60,2020-04-09,01:36:15,28.1,52.6,215,437,522,519,0,2,1,50,50,36,42,2,1,50,0.0,0.0,25.039288,121.612939,0,0,0,0,0,0,0,0,0,0,0,0,0,00000000
0C9A4249DB60,2020-04-09,01:36:30,28.1,52.6,219,439,513,519,0,2,1,50,48,16,52,2,1,50,0.0,0.0,25.039288,121.612939,0,0,0,0,0,0,0,0,0,0,0,0,0,00000000
0C9A4249DB60,2020-04-09,01:36:45,28.1,52.6,217,441,526,519,0,2,1,50,52,20,42,2,1,50,0.0,0.0,25.039288,121.612939,0,0,0,0,0,0,0,0,0,0,0,0,0,00000000
0C9A4249DB60,2020-04-09,01:37:00,28.2,52.5,218,441,518,521,0,2,1,50,43,28,44,3,1,50,0.0,0.0,25.039288,121.612939,0,0,0,0,0,0,0,0,0,0,0,0,0,00000000
0C9A4249DB60,2020-04-09,01:37:15,28.1,52.6,216,440,521,522,0,3,1,50,42,24,42,1,1,50,0.0,0.0,25.039288,121.612939,0,0,0,0,0,0,0,0,0,0,0,0,0,00000000
0C9A4249DB60,2020-04-09,01:37:30,28.2,52.6,217,441,519,522,0,1,1,50,45,34,36,2,1,50,0.0,0.0,25.039288,121.612939,0,0,0,0,0,0,0,0,0,0,0,0,0,00000000
0C9A4249DB60,2020-04-09,01:37:45,28.1,52.6,214,435,512,520,0,2,1,50,42,28,42,2,1,50,0.0,0.0,25.039288,121.612939,0,0,0,0,0,0,0,0,0,0,0,0,0,00000000
0C9A4249DB60,2020-04-09,01:38:00,28.1,52.5,213,435,519,520,0,2,1,50,46,20,26,2,1,50,0.0,0.0,25.039288,121.612939,0,0,0,0,0,0,0,0,0,0,0,0,0,00000000
0C9A4249DB60,2020-04-09,01:38:15,28.2,52.6,213,441,525,520,0,2,1,50,42,24,35,2,1,49,0.0,0.0,25.039288,121.612939,0,0,0,0,0,0,0,0,0,0,0,0,0,00000000
0C9A4249DB60,2020-04-09,01:38:30,28.1,52.6,213,437,523,520,0,2,1,49,56,20,48,2,1,49,0.0,0.0,25.039288,121.612939,0,0,0,0,0,0,0,0,0,0,0,0,0,00000000
0C9A4249DB60,2020-04-09,01:38:45,28.2,52.6,213,439,522,520,0,2,1,49,49,22,21,1,1,50,0.0,0.0,25.039288,121.612939,0,0,0,0,0,0,0,0,0,0,0,0,0,00000000
0C9A4249DB60,2020-04-09,01:39:00,28.1,52.5,213,442,536,519,0,1,1,50,46,26,37,1,1,51,0.0,0.0,25.039288,121.612939,0,0,0,0,0,0,0,0,0,0,0,0,0,00000000
0C9A4249DB60,2020-04-09,01:39:15,28.1,52.5,211,442,528,519,0,1,1,51,33,18,37,2,1,50,0.0,0.0,25.039288,121.612939,0,0,0,0,0,0,0,0,0,0,0,0,0,00000000
0C9A4249DB60,2020-04-09,01:39:30,28.1,52.6,211,437,523,519,0,2,1,50,46,34,24,2,1,50,0.0,0.0,25.039288,121.612939,0,0,0,0,0,0,0,0,0,0,0,0,0,00000000
0C9A4249DB60,2020-04-09,01:39:45,28.1,52.5,210,434,527,519,0,2,1,50,45,14,31,1,1,49,0.0,0.0,25.039288,121.612939,0,0,0,0,0,0,0,0,0,0,0,0,0,00000000
0C9A4249DB60,2020-04-09,01:40:00,28.1,52.6,211,430,521,519,0,1,1,49,43,20,47,2,1,50,0.0,0.0,25.039288,121.612939,0,0,0,0,0,0,0,0,0,0,0,0,0,00000000
0C9A4249DB60,2020-04-09,01:40:15,28.1,52.5,213,433,524,519,0,2,1,50,32,32,35,2,1,49,0.0,0.0,25.039288,121.612939,0,0,0,0,0,0,0,0,0,0,0,0,0,00000000
0C9A4249DB60,2020-04-09,01:40:30,28.1,52.6,214,432,512,519,0,2,1,49,52,26,19,2,1,50,0.0,0.0,25.039288,121.612939,0,0,0,0,0,0,0,0,0,0,0,0,0,00000000
0C9A4249DB60,2020-04-09,01:40:45,28.1,52.5,214,435,509,519,0,2,1,50,50,28,46,2,1,50,0.0,0.0,25.039288,121.612939,0,0,0,0,0,0,0,0,0,0,0,0,0,00000000
0C9A4249DB60,2020-04-09,01:41:00,28.2,52.6,213,427,505,519,0,2,1,50,48,18,38,2,1,50,0.0,0.0,25.039288,121.612939,0,0,0,0,0,0,0,0,0,0,0,0,0,00000000
0C9A4249DB60,2020-04-09,01:41:15,28.1,52.5,215,428,508,519,0,2,1,50,42,42,44,2,1,50,0.0,0.0,25.039288,121.612939,0,0,0,0,0,0,0,0,0,0,0,0,0,00000000
0C9A4249DB60,2020-04-09,01:41:30,28.1,52.6,214,428,505,520,0,2,1,50,39,28,50,1,1,50,0.0,0.0,25.039288,121.612939,0,0,0,0,0,0,0,0,0,0,0,0,0,00000000
0C9A4249DB60,2020-04-09,01:41:45,28.1,52.6,214,428,505,519,0,1,1,50,43,38,40,2,1,50,0.0,0.0,25.039288,121.612939,0,0,0,0,0,0,0,0,0,0,0,0,0,00000000
0C9A4249DB60,2020-04-09,01:42:00,28.2,52.6,213,427,499,519,0,2,1,50,36,27,24,2,2,50,0.0,0.0,25.039288,121.612939,0,0,0,0,0,0,0,0,0,0,0,0,0,00000000
0C9A4249DB60,2020-04-09,01:42:15,28.1,52.5,213,432,509,519,0,2,2,50,42,27,38,2,1,50,0.0,0.0,25.039288,121.612939,0,0,0,0,0,0,0,0,0,0,0,0,0,00000000
0C9A4249DB60,2020-04-09,01:42:30,28.2,52.6,213,431,501,519,0,2,1,50,38,30,36,2,1,50,0.0,0.0,25.039288,121.612939,0,0,0,0,0,0,0,0,0,0,0,0,0,00000000
0C9A4249DB60,2020-04-09,01:42:45,28.1,52.6,215,429,500,519,0,2,1,50,40,14,22,2,1,50,0.0,0.0,25.039288,121.612939,0,0,0,0,0,0,0,0,0,0,0,0,0,00000000
0C9A4249DB60,2020-04-09,01:43:00,28.1,52.6,215,430,503,519,0,2,1,50,38,24,51,2,1,49,0.0,0.0,25.039288,121.612939,0,0,0,0,0,0,0,0,0,0,0,0,0,00000000
0C9A4249DB60,2020-04-09,01:43:15,28.1,52.6,216,427,507,519,0,2,1,49,41,26,27,1,1,50,0.0,0.0,25.039288,121.612939,0,0,0,0,0,0,0,0,0,0,0,0,0,00000000
0C9A4249DB60,2020-04-09,01:43:30,28.2,52.5,214,427,507,519,0,1,1,50,45,18,38,2,1,50,0.0,0.0,25.039288,121.612939,0,0,0,0,0,0,0,0,0,0,0,0,0,00000000
0C9A4249DB60,2020-04-09,01:43:45,28.1,52.6,213,428,504,519,0,2,1,50,48,42,36,2,1,50,0.0,0.0,25.039288,121.612939,0,0,0,0,0,0,0,0,0,0,0,0,0,00000000
0C9A4249DB60,2020-04-09,01:44:00,28.1,52.5,213,427,503,519,0,2,1,50,48,28,32,2,1,50,0.0,0.0,25.039288,121.612939,0,0,0,0,0,0,0,0,0,0,0,0,0,00000000
0C9A4249DB60,2020-04-09,01:44:15,28.1,52.5,215,427,500,519,0,2,1,50,50,32,34,2,1,50,0.0,0.0,25.039288,121.612939,0,0,0,0,0,0,0,0,0,0,0,0,0,00000000
0C9A4249DB60,2020-04-09,01:44:30,28.2,52.6,215,424,506,519,0,2,1,50,54,32,34,2,1,50,0.0,0.0,25.039288,121.612939,0,0,0,0,0,0,0,0,0,0,0,0,0,00000000
0C9A4249DB60,2020-04-09,01:44:45,28.1,52.5,216,427,507,519,0,2,1,50,31,35,45,3,2,49,0.0,0.0,25.039288,121.612939,0,0,0,0,0,0,0,0,0,0,0,0,0,00000000
0C9A4249DB60,2020-04-09,01:45:00,28.1,52.6,213,425,507,519,0,3,2,49,41,31,46,2,1,49,0.0,0.0,25.039288,121.612939,0,0,0,0,0,0,0,0,0,0,0,0,0,00000000
0C9A4249DB60,2020-04-09,01:45:15,28.1,52.6,215,425,510,520,0,2,1,49,36,24,37,2,1,50,0.0,0.0,25.039288,121.612939,0,0,0,0,0,0,0,0,0,0,0,0,0,00000000
0C9A4249DB60,2020-04-09,01:45:30,28.2,52.5,215,421,497,520,0,2,1,50,36,30,32,2,1,50,0.0,0.0,25.039288,121.612939,0,0,0,0,0,0,0,0,0,0,0,0,0,00000000
0C9A4249DB60,2020-04-09,01:45:45,28.1,52.5,215,423,501,520,0,2,1,50,36,22,38,2,1,50,0.0,0.0,25.039288,121.612939,0,0,0,0,0,0,0,0,0,0,0,0,0,00000000
0C9A4249DB60,2020-04-09,01:46:00,28.1,52.6,215,425,504,520,0,2,1,50,32,18,31,2,1,49,0.0,0.0,25.039288,121.612939,0,0,0,0,0,0,0,0,0,0,0,0,0,00000000
0C9A4249DB60,2020-04-09,01:46:15,28.2,52.6,211,423,489,520,0,2,1,49,66,30,49,2,1,50,0.0,0.0,25.039288,121.612939,0,0,0,0,0,0,0,0,0,0,0,0,0,00000000
0C9A4249DB60,2020-04-09,01:46:30,28.1,52.6,211,421,479,521,0,2,1,50,42,32,34,2,1,50,0.0,0.0,25.039288,121.612939,0,0,0,0,0,0,0,0,0,0,0,0,0,00000000
0C9A4249DB60,2020-04-09,01:46:45,28.2,52.6,210,427,485,520,0,2,1,50,50,26,50,2,1,50,0.0,0.0,25.039288,121.612939,0,0,0,0,0,0,0,0,0,0,0,0,0,00000000
0C9A4249DB60,2020-04-09,01:47:00,28.1,52.6,210,427,487,521,0,2,1,50,52,25,36,2,2,50,0.0,0.0,25.039288,121.612939,0,0,0,0,0,0,0,0,0,0,0,0,0,00000000
0C9A4249DB60,2020-04-09,01:47:15,28.1,52.6,212,429,493,521,0,2,2,50,52,29,46,2,1,50,0.0,0.0,25.039288,121.612939,0,0,0,0,0,0,0,0,0,0,0,0,0,00000000
0C9A4249DB60,2020-04-09,01:47:30,28.1,52.6,210,421,487,521,0,2,1,50,42,18,36,2,1,50,0.0,0.0,25.039288,121.612939,0,0,0,0,0,0,0,0,0,0,0,0,0,00000000
0C9A4249DB60,2020-04-09,01:47:45,28.1,52.6,212,422,486,520,0,2,1,50,36,16,34,2,1,50,0.0,0.0,25.039288,121.612939,0,0,0,0,0,0,0,0,0,0,0,0,0,00000000
0C9A4249DB60,2020-04-09,01:48:00,28.2,52.6,215,424,495,520,0,2,1,50,44,18,48,2,1,50,0.0,0.0,25.039288,121.612939,0,0,0,0,0,0,0,0,0,0,0,0,0,00000000
0C9A4249DB60,2020-04-09,01:48:15,28.1,52.6,214,427,501,520,0,2,1,50,36,30,28,2,1,50,0.0,0.0,25.039288,121.612939,0,0,0,0,0,0,0,0,0,0,0,0,0,00000000
0C9A4249DB60,2020-04-09,01:48:30,28.2,52.5,215,427,500,520,0,2,1,50,32,20,46,2,1,50,0.0,0.0,25.039288,121.612939,0,0,0,0,0,0,0,0,0,0,0,0,0,00000000
0C9A4249DB60,2020-04-09,01:48:45,28.1,52.6,211,429,501,521,0,2,1,50,38,25,48,2,0,50,0.0,0.0,25.039288,121.612939,0,0,0,0,0,0,0,0,0,0,0,0,0,00000000
0C9A4249DB60,2020-04-09,01:49:00,28.1,52.6,209,432,513,520,0,2,0,50,36,19,30,2,1,50,0.0,0.0,25.039288,121.612939,0,0,0,0,0,0,0,0,0,0,0,0,0,00000000
0C9A4249DB60,2020-04-09,01:49:15,28.1,52.6,208,425,509,519,0,2,1,50,50,32,39,2,1,51,0.0,0.0,25.039288,121.612939,0,0,0,0,0,0,0,0,0,0,0,0,0,00000000
0C9A4249DB60,2020-04-09,01:49:30,28.1,52.6,211,429,501,519,0,2,1,51,38,16,53,2,1,50,0.0,0.0,25.039288,121.612939,0,0,0,0,0,0,0,0,0,0,0,0,0,00000000
0C9A4249DB60,2020-04-09,01:49:45,28.1,52.6,211,429,505,519,0,2,1,50,44,24,28,2,1,50,0.0,0.0,25.039288,121.612939,0,0,0,0,0,0,0,0,0,0,0,0,0,00000000
0C9A4249DB60,2020-04-09,01:50:00,28.1,52.6,210,424,493,519,0,2,1,50,40,30,42,2,1,50,0.0,0.0,25.039288,121.612939,0,0,0,0,0,0,0,0,0,0,0,0,0,00000000
0C9A4249DB60,2020-04-09,01:50:15,28.1,52.6,211,427,503,519,0,2,1,50,36,26,40,2,1,50,0.0,0.0,25.039288,121.612939,0,0,0,0,0,0,0,0,0,0,0,0,0,00000000
0C9A4249DB60,2020-04-09,01:50:30,28.1,52.6,207,421,488,519,0,2,1,50,34,32,47,0,1,51,0.0,0.0,25.039288,121.612939,0,0,0,0,0,0,0,0,0,0,0,0,0,00000000
0C9A4249DB60,2020-04-09,01:50:45,28.1,52.5,210,421,491,519,0,0,1,51,42,18,40,2,1,49,0.0,0.0,25.039288,121.612939,0,0,0,0,0,0,0,0,0,0,0,0,0,00000000
0C9A4249DB60,2020-04-09,01:51:00,28.2,52.6,211,419,483,519,0,2,1,49,28,40,49,2,1,50,0.0,0.0,25.039288,121.612939,0,0,0,0,0,0,0,0,0,0,0,0,0,00000000
0C9A4249DB60,2020-04-09,01:51:15,28.1,52.6,212,421,491,519,0,2,1,50,41,26,32,1,1,50,0.0,0.0,25.039288,121.612939,0,0,0,0,0,0,0,0,0,0,0,0,0,00000000
0C9A4249DB60,2020-04-09,01:51:30,28.1,52.6,214,421,481,519,0,1,1,50,38,23,47,3,2,51,0.0,0.0,25.039288,121.612939,0,0,0,0,0,0,0,0,0,0,0,0,0,00000000
0C9A4249DB60,2020-04-09,01:51:45,28.1,52.6,213,419,485,519,0,3,2,51,39,21,27,2,1,50,0.0,0.0,25.039288,121.612939,0,0,0,0,0,0,0,0,0,0,0,0,0,00000000
0C9A4249DB60,2020-04-09,01:52:00,28.2,52.6,213,419,495,519,0,2,1,50,54,22,62,2,1,50,0.0,0.0,25.039288,121.612939,0,0,0,0,0,0,0,0,0,0,0,0,0,00000000
0C9A4249DB60,2020-04-09,01:52:15,28.2,52.6,210,413,498,519,0,2,1,50,48,34,47,2,1,49,0.0,0.0,25.039288,121.612939,0,0,0,0,0,0,0,0,0,0,0,0,0,00000000
0C9A4249DB60,2020-04-09,01:52:30,28.1,52.6,211,411,497,519,0,2,1,49,32,28,32,2,1,49,0.0,0.0,25.039288,121.612939,0,0,0,0,0,0,0,0,0,0,0,0,0,00000000
0C9A4249DB60,2020-04-09,01:52:45,28.1,52.6,209,410,490,519,0,2,1,49,46,28,45,2,1,50,0.0,0.0,25.039288,121.612939,0,0,0,0,0,0,0,0,0,0,0,0,0,00000000
0C9A4249DB60,2020-04-09,01:53:00,28.1,52.6,211,420,489,518,0,2,1,50,38,22,36,2,1,50,0.0,0.0,25.039288,121.612939,0,0,0,0,0,0,0,0,0,0,0,0,0,00000000
0C9A4249DB60,2020-04-09,01:53:15,28.1,52.6,210,424,493,518,0,2,1,50,56,24,30,2,1,50,0.0,0.0,25.039288,121.612939,0,0,0,0,0,0,0,0,0,0,0,0,0,00000000
0C9A4249DB60,2020-04-09,01:53:30,28.1,52.6,211,417,484,519,0,2,1,50,48,32,38,2,1,50,0.0,0.0,25.039288,121.612939,0,0,0,0,0,0,0,0,0,0,0,0,0,00000000
0C9A4249DB60,2020-04-09,01:53:45,28.1,52.6,213,419,488,519,0,2,1,50,53,28,49,1,1,51,0.0,0.0,25.039288,121.612939,0,0,0,0,0,0,0,0,0,0,0,0,0,00000000
0C9A4249DB60,2020-04-09,01:54:00,28.1,52.5,210,417,485,519,0,1,1,51,39,24,43,2,1,50,0.0,0.0,25.039288,121.612939,0,0,0,0,0,0,0,0,0,0,0,0,0,00000000
0C9A4249DB60,2020-04-09,01:54:15,28.1,52.6,210,417,488,520,0,2,1,50,42,32,40,2,1,50,0.0,0.0,25.039288,121.612939,0,0,0,0,0,0,0,0,0,0,0,0,0,00000000
0C9A4249DB60,2020-04-09,01:54:30,28.1,52.6,207,423,487,519,0,2,1,50,48,22,30,2,1,50,0.0,0.0,25.039288,121.612939,0,0,0,0,0,0,0,0,0,0,0,0,0,00000000
0C9A4249DB60,2020-04-09,01:54:45,28.1,52.6,208,425,491,519,0,2,1,50,37,42,56,1,1,50,0.0,0.0,25.039288,121.612939,0,0,0,0,0,0,0,0,0,0,0,0,0,00000000
0C9A4249DB60,2020-04-09,01:55:00,28.1,52.6,207,423,487,518,0,1,1,50,57,30,50,2,1,50,0.0,0.0,25.039288,121.612939,0,0,0,0,0,0,0,0,0,0,0,0,0,00000000
0C9A4249DB60,2020-04-09,01:55:15,28.1,52.5,208,418,486,517,0,2,1,50,52,29,47,0,0,51,0.0,0.0,25.039288,121.612939,0,0,0,0,0,0,0,0,0,0,0,0,0,00000000
0C9A4249DB60,2020-04-09,01:55:30,28.1,52.6,206,414,489,518,0,0,0,51,35,27,43,1,1,50,0.0,0.0,25.039288,121.612939,0,0,0,0,0,0,0,0,0,0,0,0,0,00000000
0C9A4249DB60,2020-04-09,01:55:45,28.1,52.6,208,413,492,519,0,1,1,50,53,28,32,2,1,50,0.0,0.0,25.039288,121.612939,0,0,0,0,0,0,0,0,0,0,0,0,0,00000000
0C9A4249DB60,2020-04-09,01:56:00,28.1,52.6,211,413,493,519,0,2,1,50,48,24,36,2,1,50,0.0,0.0,25.039288,121.612939,0,0,0,0,0,0,0,0,0,0,0,0,0,00000000
0C9A4249DB60,2020-04-09,01:56:15,28.1,52.6,210,413,488,517,0,2,1,50,53,36,34,1,1,50,0.0,0.0,25.039288,121.612939,0,0,0,0,0,0,0,0,0,0,0,0,0,00000000
0C9A4249DB60,2020-04-09,01:56:30,28.1,52.6,212,418,489,517,0,1,1,50,39,30,52,2,1,50,0.0,0.0,25.039288,121.612939,0,0,0,0,0,0,0,0,0,0,0,0,0,00000000
0C9A4249DB60,2020-04-09,01:56:45,28.2,52.6,212,419,492,517,0,2,1,50,44,24,36,2,1,50,0.0,0.0,25.039288,121.612939,0,0,0,0,0,0,0,0,0,0,0,0,0,00000000
0C9A4249DB60,2020-04-09,01:57:00,28.1,52.6,210,418,490,516,0,2,1,50,48,48,36,2,1,50,0.0,0.0,25.039288,121.612939,0,0,0,0,0,0,0,0,0,0,0,0,0,00000000
0C9A4249DB60,2020-04-09,01:57:15,28.1,52.6,209,415,490,517,0,2,1,50,56,38,46,2,1,50,0.0,0.0,25.039288,121.612939,0,0,0,0,0,0,0,0,0,0,0,0,0,00000000
0C9A4249DB60,2020-04-09,01:57:30,28.1,52.6,209,416,489,517,0,2,1,50,28,18,49,2,1,51,0.0,0.0,25.039288,121.612939,0,0,0,0,0,0,0,0,0,0,0,0,0,00000000
0C9A4249DB60,2020-04-09,01:57:45,28.1,52.5,208,419,491,518,0,2,1,51,43,20,48,1,1,51,0.0,0.0,25.039288,121.612939,0,0,0,0,0,0,0,0,0,0,0,0,0,00000000
0C9A4249DB60,2020-04-09,01:58:00,28.1,52.5,209,421,487,518,0,1,1,51,55,26,43,2,1,50,0.0,0.0,25.039288,121.612939,0,0,0,0,0,0,0,0,0,0,0,0,0,00000000
0C9A4249DB60,2020-04-09,01:58:15,28.1,52.6,210,417,492,519,0,2,1,50,37,32,48,1,1,50,0.0,0.0,25.039288,121.612939,0,0,0,0,0,0,0,0,0,0,0,0,0,00000000
0C9A4249DB60,2020-04-09,01:58:30,28.1,52.6,211,415,491,519,0,1,1,50,43,21,44,2,0,50,0.0,0.0,25.039288,121.612939,0,0,0,0,0,0,0,0,0,0,0,0,0,00000000
0C9A4249DB60,2020-04-09,01:58:45,28.1,52.6,203,405,468,519,0,2,0,50,46,35,40,2,1,50,0.0,0.0,25.039288,121.612939,0,0,0,0,0,0,0,0,0,0,0,0,0,00000000
0C9A4249DB60,2020-04-09,01:59:00,28.1,52.6,205,413,477,518,0,2,1,50,40,30,34,2,1,50,0.0,0.0,25.039288,121.612939,0,0,0,0,0,0,0,0,0,0,0,0,0,00000000
0C9A4249DB60,2020-04-09,01:59:15,28.1,52.6,207,419,480,517,0,2,1,50,39,26,38,1,1,50,0.0,0.0,25.039288,121.612939,0,0,0,0,0,0,0,0,0,0,0,0,0,00000000
0C9A4249DB60,2020-04-09,01:59:30,28.1,52.6,209,422,491,517,0,1,1,50,37,28,36,2,1,50,0.0,0.0,25.039288,121.612939,0,0,0,0,0,0,0,0,0,0,0,0,0,00000000
0C9A4249DB60,2020-04-09,01:59:45,28.2,52.6,210,423,485,517,0,2,1,50,53,22,58,3,1,50,0.0,0.0,25.039288,121.612939,0,0,0,0,0,0,0,0,0,0,0,0,0,00000000
0C9A4249DB60,2020-04-09,02:00:00,28.1,52.6,210,421,483,517,0,3,1,50,45,14,54,2,1,50,0.0,0.0,25.039288,121.612939,0,0,0,0,0,0,0,0,0,0,0,0,0,00000000
0C9A4249DB60,2020-04-09,02:00:15,28.1,52.6,209,419,479,517,0,2,1,50,42,37,46,2,2,50,0.0,0.0,25.039288,121.612939,0,0,0,0,0,0,0,0,0,0,0,0,0,00000000
0C9A4249DB60,2020-04-09,02:00:30,28.1,52.6,209,413,474,517,0,2,2,50,40,29,43,2,1,49,0.0,0.0,25.039288,121.612939,0,0,0,0,0,0,0,0,0,0,0,0,0,00000000
0C9A4249DB60,2020-04-09,02:00:45,28.1,52.6,207,414,480,517,0,2,1,49,50,26,55,2,1,50,0.0,0.0,25.039288,121.612939,0,0,0,0,0,0,0,0,0,0,0,0,0,00000000
0C9A4249DB60,2020-04-09,02:01:00,28.1,52.5,207,417,491,517,0,2,1,50,48,22,48,2,1,50,0.0,0.0,25.039288,121.612939,0,0,0,0,0,0,0,0,0,0,0,0,0,00000000
0C9A4249DB60,2020-04-09,02:01:15,28.1,52.6,207,413,489,517,0,2,1,50,36,24,50,2,1,50,0.0,0.0,25.039288,121.612939,0,0,0,0,0,0,0,0,0,0,0,0,0,00000000
0C9A4249DB60,2020-04-09,02:01:30,28.1,52.6,208,417,489,518,0,2,1,50,46,36,52,2,1,50,0.0,0.0,25.039288,121.612939,0,0,0,0,0,0,0,0,0,0,0,0,0,00000000
0C9A4249DB60,2020-04-09,02:01:45,28.1,52.6,207,416,485,518,0,2,1,50,46,32,44,2,1,50,0.0,0.0,25.039288,121.612939,0,0,0,0,0,0,0,0,0,0,0,0,0,00000000
0C9A4249DB60,2020-04-09,02:02:00,28.1,52.6,206,419,494,518,0,2,1,50,50,22,38,2,1,50,0.0,0.0,25.039288,121.612939,0,0,0,0,0,0,0,0,0,0,0,0,0,00000000
0C9A4249DB60,2020-04-09,02:02:15,28.1,52.6,205,418,497,519,0,2,1,50,44,23,45,2,2,49,0.0,0.0,25.039288,121.612939,0,0,0,0,0,0,0,0,0,0,0,0,0,00000000
0C9A4249DB60,2020-04-09,02:02:30,28.1,52.6,209,419,487,519,0,2,2,49,45,15,33,1,1,50,0.0,0.0,25.039288,121.612939,0,0,0,0,0,0,0,0,0,0,0,0,0,00000000
0C9A4249DB60,2020-04-09,02:02:45,28.1,52.6,208,415,485,519,0,1,1,50,29,26,42,2,1,50,0.0,0.0,25.039288,121.612939,0,0,0,0,0,0,0,0,0,0,0,0,0,00000000
0C9A4249DB60,2020-04-09,02:03:00,28.1,52.6,207,411,481,519,0,2,1,50,44,20,38,2,1,50,0.0,0.0,25.039288,121.612939,0,0,0,0,0,0,0,0,0,0,0,0,0,00000000
0C9A4249DB60,2020-04-09,02:03:15,28.1,52.6,206,410,484,519,0,2,1,50,32,20,50,2,1,50,0.0,0.0,25.039288,121.612939,0,0,0,0,0,0,0,0,0,0,0,0,0,00000000
0C9A4249DB60,2020-04-09,02:03:30,28.1,52.6,209,422,502,519,0,2,1,50,35,26,44,1,1,50,0.0,0.0,25.039288,121.612939,0,0,0,0,0,0,0,0,0,0,0,0,0,00000000
0C9A4249DB60,2020-04-09,02:03:45,28.1,52.6,205,411,476,519,0,1,1,50,40,32,30,1,1,50,0.0,0.0,25.039288,121.612939,0,0,0,0,0,0,0,0,0,0,0,0,0,00000000
0C9A4249DB60,2020-04-09,02:04:00,28.1,52.6,205,411,474,519,0,1,1,50,45,20,52,2,1,50,0.0,0.0,25.039288,121.612939,0,0,0,0,0,0,0,0,0,0,0,0,0,00000000
0C9A4249DB60,2020-04-09,02:04:15,28.1,52.6,206,409,468,518,0,2,1,50,50,30,54,2,1,50,0.0,0.0,25.039288,121.612939,0,0,0,0,0,0,0,0,0,0,0,0,0,00000000
0C9A4249DB60,2020-04-09,02:04:30,28.1,52.6,207,405,471,517,0,2,1,50,40,30,38,2,1,50,0.0,0.0,25.039288,121.612939,0,0,0,0,0,0,0,0,0,0,0,0,0,00000000
0C9A4249DB60,2020-04-09,02:04:45,28.1,52.7,207,403,475,518,0,2,1,50,47,34,44,1,1,50,0.0,0.0,25.039288,121.612939,0,0,0,0,0,0,0,0,0,0,0,0,0,00000000
0C9A4249DB60,2020-04-09,02:05:00,28.1,52.6,208,396,470,518,0,1,1,50,40,16,28,1,1,50,0.0,0.0,25.039288,121.612939,0,0,0,0,0,0,0,0,0,0,0,0,0,00000000
0C9A4249DB60,2020-04-09,02:05:15,28.1,52.6,207,405,477,519,0,1,1,50,29,20,42,2,1,50,0.0,0.0,25.039288,121.612939,0,0,0,0,0,0,0,0,0,0,0,0,0,00000000
0C9A4249DB60,2020-04-09,02:05:30,28.1,52.6,202,401,475,519,0,2,1,50,52,46,36,2,1,50,0.0,0.0,25.039288,121.612939,0,0,0,0,0,0,0,0,0,0,0,0,0,00000000
0C9A4249DB60,2020-04-09,02:05:45,28.1,52.6,203,409,491,519,0,2,1,50,44,36,42,2,1,50,0.0,0.0,25.039288,121.612939,0,0,0,0,0,0,0,0,0,0,0,0,0,00000000
0C9A4249DB60,2020-04-09,02:06:00,28.1,52.6,203,407,487,519,0,2,1,50,33,31,51,3,0,49,0.0,0.0,25.039288,121.612939,0,0,0,0,0,0,0,0,0,0,0,0,0,00000000
0C9A4249DB60,2020-04-09,02:06:15,28.1,52.6,205,411,487,519,0,3,0,49,50,40,39,1,2,50,0.0,0.0,25.039288,121.612939,0,0,0,0,0,0,0,0,0,0,0,0,0,00000000
0C9A4249DB60,2020-04-09,02:06:30,28.1,52.6,204,409,472,519,0,1,2,50,43,29,40,2,1,50,0.0,0.0,25.039288,121.612939,0,0,0,0,0,0,0,0,0,0,0,0,0,00000000
0C9A4249DB60,2020-04-09,02:06:45,28.1,52.6,206,409,478,518,0,2,1,50,52,26,36,2,1,50,0.0,0.0,25.039288,121.612939,0,0,0,0,0,0,0,0,0,0,0,0,0,00000000
0C9A4249DB60,2020-04-09,02:07:00,28.1,52.6,207,411,484,519,0,2,1,50,47,32,54,3,1,50,0.0,0.0,25.039288,121.612939,0,0,0,0,0,0,0,0,0,0,0,0,0,00000000
0C9A4249DB60,2020-04-09,02:07:15,28.1,52.7,206,411,475,519,0,3,1,50,57,38,45,2,1,49,0.0,0.0,25.039288,121.612939,0,0,0,0,0,0,0,0,0,0,0,0,0,00000000
0C9A4249DB60,2020-04-09,02:07:30,28.1,52.6,205,415,480,519,0,2,1,49,46,12,40,2,1,49,0.0,0.0,25.039288,121.612939,0,0,0,0,0,0,0,0,0,0,0,0,0,00000000
0C9A4249DB60,2020-04-09,02:07:45,28.1,52.6,205,412,477,519,0,2,1,49,46,12,27,2,1,50,0.0,0.0,25.039288,121.612939,0,0,0,0,0,0,0,0,0,0,0,0,0,00000000
0C9A4249DB60,2020-04-09,02:08:00,28.1,52.6,205,415,491,519,0,2,1,50,52,28,32,2,1,50,0.0,0.0,25.039288,121.612939,0,0,0,0,0,0,0,0,0,0,0,0,0,00000000
0C9A4249DB60,2020-04-09,02:08:15,28.1,52.6,206,415,491,519,0,2,1,50,36,23,38,2,2,50,0.0,0.0,25.039288,121.612939,0,0,0,0,0,0,0,0,0,0,0,0,0,00000000
0C9A4249DB60,2020-04-09,02:08:30,28.1,52.6,206,411,482,519,0,2,2,50,41,25,42,3,1,50,0.0,0.0,25.039288,121.612939,0,0,0,0,0,0,0,0,0,0,0,0,0,00000000
0C9A4249DB60,2020-04-09,02:08:45,28.1,52.6,210,415,490,519,0,3,1,50,43,35,44,2,0,50,0.0,0.0,25.039288,121.612939,0,0,0,0,0,0,0,0,0,0,0,0,0,00000000
0C9A4249DB60,2020-04-09,02:09:00,28.1,52.6,205,407,484,517,0,2,0,50,42,32,38,2,2,50,0.0,0.0,25.039288,121.612939,0,0,0,0,0,0,0,0,0,0,0,0,0,00000000
0C9A4249DB60,2020-04-09,02:09:15,28.1,52.6,204,407,489,518,0,2,2,50,43,21,49,1,1,51,0.0,0.0,25.039288,121.612939,0,0,0,0,0,0,0,0,0,0,0,0,0,00000000
0C9A4249DB60,2020-04-09,02:09:30,28.1,52.6,204,409,487,517,0,1,1,51,33,44,37,2,1,50,0.0,0.0,25.039288,121.612939,0,0,0,0,0,0,0,0,0,0,0,0,0,00000000
0C9A4249DB60,2020-04-09,02:09:45,28.1,52.6,206,407,479,517,0,2,1,50,43,34,50,1,1,50,0.0,0.0,25.039288,121.612939,0,0,0,0,0,0,0,0,0,0,0,0,0,00000000
0C9A4249DB60,2020-04-09,02:10:00,28.1,52.6,206,409,473,517,0,1,1,50,41,24,36,2,1,50,0.0,0.0,25.039288,121.612939,0,0,0,0,0,0,0,0,0,0,0,0,0,00000000
0C9A4249DB60,2020-04-09,02:10:15,28.1,52.6,206,405,464,517,0,2,1,50,30,20,40,2,1,50,0.0,0.0,25.039288,121.612939,0,0,0,0,0,0,0,0,0,0,0,0,0,00000000
0C9A4249DB60,2020-04-09,02:10:30,28.1,52.6,206,401,464,517,0,2,1,50,62,44,42,2,1,50,0.0,0.0,25.039288,121.612939,0,0,0,0,0,0,0,0,0,0,0,0,0,00000000
0C9A4249DB60,2020-04-09,02:10:45,28.1,52.6,207,403,461,517,0,2,1,50,42,24,42,2,1,50,0.0,0.0,25.039288,121.612939,0,0,0,0,0,0,0,0,0,0,0,0,0,00000000
0C9A4249DB60,2020-04-09,02:11:00,28.1,52.6,209,403,463,516,0,2,1,50,50,33,34,2,2,50,0.0,0.0,25.039288,121.612939,0,0,0,0,0,0,0,0,0,0,0,0,0,00000000
0C9A4249DB60,2020-04-09,02:11:15,28.1,52.6,208,409,467,514,0,2,2,50,42,29,40,2,1,50,0.0,0.0,25.039288,121.612939,0,0,0,0,0,0,0,0,0,0,0,0,0,00000000
0C9A4249DB60,2020-04-09,02:11:30,28.1,52.6,207,407,478,515,0,2,1,50,40,28,48,2,1,50,0.0,0.0,25.039288,121.612939,0,0,0,0,0,0,0,0,0,0,0,0,0,00000000
0C9A4249DB60,2020-04-09,02:11:45,28.1,52.6,205,409,487,516,0,2,1,50,49,32,42,1,1,50,0.0,0.0,25.039288,121.612939,0,0,0,0,0,0,0,0,0,0,0,0,0,00000000
0C9A4249DB60,2020-04-09,02:12:00,28.1,52.6,202,401,481,516,0,1,1,50,45,30,50,2,1,50,0.0,0.0,25.039288,121.612939,0,0,0,0,0,0,0,0,0,0,0,0,0,00000000
0C9A4249DB60,2020-04-09,02:12:15,28.1,52.6,202,404,481,517,0,2,1,50,54,40,34,2,1,50,0.0,0.0,25.039288,121.612939,0,0,0,0,0,0,0,0,0,0,0,0,0,00000000
0C9A4249DB60,2020-04-09,02:12:30,28.1,52.6,200,396,472,517,0,2,1,50,40,22,40,2,1,50,0.0,0.0,25.039288,121.612939,0,0,0,0,0,0,0,0,0,0,0,0,0,00000000
0C9A4249DB60,2020-04-09,02:12:45,28.1,52.6,202,397,466,518,0,2,1,50,44,22,30,2,1,50,0.0,0.0,25.039288,121.612939,0,0,0,0,0,0,0,0,0,0,0,0,0,00000000
0C9A4249DB60,2020-04-09,02:13:00,28.1,52.6,205,398,474,517,0,2,1,50,34,30,40,2,1,50,0.0,0.0,25.039288,121.612939,0,0,0,0,0,0,0,0,0,0,0,0,0,00000000
0C9A4249DB60,2020-04-09,02:13:15,28.1,52.6,202,401,470,518,0,2,1,50,40,28,38,2,1,50,0.0,0.0,25.039288,121.612939,0,0,0,0,0,0,0,0,0,0,0,0,0,00000000
0C9A4249DB60,2020-04-09,02:13:30,28.1,52.6,203,407,473,517,0,2,1,50,36,24,42,2,1,50,0.0,0.0,25.039288,121.612939,0,0,0,0,0,0,0,0,0,0,0,0,0,00000000
0C9A4249DB60,2020-04-09,02:13:45,28.1,52.6,204,405,471,517,0,2,1,50,50,18,40,2,1,50,0.0,0.0,25.039288,121.612939,0,0,0,0,0,0,0,0,0,0,0,0,0,00000000
0C9A4249DB60,2020-04-09,02:14:00,28.1,52.6,203,401,471,518,0,2,1,50,49,26,32,1,1,50,0.0,0.0,25.039288,121.612939,0,0,0,0,0,0,0,0,0,0,0,0,0,00000000
0C9A4249DB60,2020-04-09,02:14:15,28.1,52.6,202,396,470,518,0,1,1,50,35,20,42,2,1,50,0.0,0.0,25.039288,121.612939,0,0,0,0,0,0,0,0,0,0,0,0,0,00000000
0C9A4249DB60,2020-04-09,02:14:30,28.1,52.6,202,401,475,518,0,2,1,50,30,26,40,2,1,50,0.0,0.0,25.039288,121.612939,0,0,0,0,0,0,0,0,0,0,0,0,0,00000000
0C9A4249DB60,2020-04-09,02:14:45,28.1,52.6,202,402,474,518,0,2,1,50,32,25,40,2,2,50,0.0,0.0,25.039288,121.612939,0,0,0,0,0,0,0,0,0,0,0,0,0,00000000
0C9A4249DB60,2020-04-09,02:15:00,28.1,52.6,206,413,481,518,0,2,2,50,22,22,30,2,2,50,0.0,0.0,25.039288,121.612939,0,0,0,0,0,0,0,0,0,0,0,0,0,00000000
0C9A4249DB60,2020-04-09,02:15:15,28.1,52.6,204,398,465,517,0,2,2,50,52,31,50,2,1,50,0.0,0.0,25.039288,121.612939,0,0,0,0,0,0,0,0,0,0,0,0,0,00000000
0C9A4249DB60,2020-04-09,02:15:30,28.1,52.6,203,403,474,517,0,2,1,50,48,28,30,2,1,50,0.0,0.0,25.039288,121.612939,0,0,0,0,0,0,0,0,0,0,0,0,0,00000000
0C9A4249DB60,2020-04-09,02:15:45,28.1,52.7,201,397,471,517,0,2,1,50,42,31,39,2,2,51,0.0,0.0,25.039288,121.612939,0,0,0,0,0,0,0,0,0,0,0,0,0,00000000
0C9A4249DB60,2020-04-09,02:16:00,28.1,52.6,202,401,478,517,0,2,2,51,32,23,31,2,1,50,0.0,0.0,25.039288,121.612939,0,0,0,0,0,0,0,0,0,0,0,0,0,00000000
0C9A4249DB60,2020-04-09,02:16:15,28.1,52.6,203,397,475,518,0,2,1,50,44,28,30,2,1,50,0.0,0.0,25.039288,121.612939,0,0,0,0,0,0,0,0,0,0,0,0,0,00000000
0C9A4249DB60,2020-04-09,02:16:30,28.1,52.7,205,397,465,517,0,2,1,50,62,34,36,2,1,50,0.0,0.0,25.039288,121.612939,0,0,0,0,0,0,0,0,0,0,0,0,0,00000000
0C9A4249DB60,2020-04-09,02:16:45,28.1,52.6,203,399,466,519,0,2,1,50,36,18,34,2,1,50,0.0,0.0,25.039288,121.612939,0,0,0,0,0,0,0,0,0,0,0,0,0,00000000
0C9A4249DB60,2020-04-09,02:17:00,28.1,52.6,205,399,463,518,0,2,1,50,32,30,36,2,1,50,0.0,0.0,25.039288,121.612939,0,0,0,0,0,0,0,0,0,0,0,0,0,00000000
0C9A4249DB60,2020-04-09,02:17:15,28.1,52.7,205,403,469,518,0,2,1,50,41,36,33,1,1,51,0.0,0.0,25.039288,121.612939,0,0,0,0,0,0,0,0,0,0,0,0,0,00000000
0C9A4249DB60,2020-04-09,02:17:30,28.1,52.7,205,399,463,516,0,1,1,51,51,44,44,2,1,49,0.0,0.0,25.039288,121.612939,0,0,0,0,0,0,0,0,0,0,0,0,0,00000000
0C9A4249DB60,2020-04-09,02:17:45,28.1,52.6,205,398,462,517,0,2,1,49,42,24,31,2,1,50,0.0,0.0,25.039288,121.612939,0,0,0,0,0,0,0,0,0,0,0,0,0,00000000
0C9A4249DB60,2020-04-09,02:18:00,28.1,52.6,203,393,455,517,0,2,1,50,54,22,28,2,1,50,0.0,0.0,25.039288,121.612939,0,0,0,0,0,0,0,0,0,0,0,0,0,00000000
0C9A4249DB60,2020-04-09,02:18:15,28.1,52.7,202,390,458,517,0,2,1,50,42,28,43,2,1,49,0.0,0.0,25.039288,121.612939,0,0,0,0,0,0,0,0,0,0,0,0,0,00000000
0C9A4249DB60,2020-04-09,02:18:30,28.1,52.6,203,394,471,516,0,2,1,49,46,35,45,2,2,50,0.0,0.0,25.039288,121.612939,0,0,0,0,0,0,0,0,0,0,0,0,0,00000000
0C9A4249DB60,2020-04-09,02:18:45,28.1,52.6,208,405,482,516,0,2,2,50,44,19,38,2,1,50,0.0,0.0,25.039288,121.612939,0,0,0,0,0,0,0,0,0,0,0,0,0,00000000
0C9A4249DB60,2020-04-09,02:19:00,28.1,52.6,202,395,462,517,0,2,1,50,39,36,38,1,1,50,0.0,0.0,25.039288,121.612939,0,0,0,0,0,0,0,0,0,0,0,0,0,00000000
0C9A4249DB60,2020-04-09,02:19:15,28.1,52.7,203,401,462,517,0,1,1,50,50,38,46,1,1,50,0.0,0.0,25.039288,121.612939,0,0,0,0,0,0,0,0,0,0,0,0,0,00000000
0C9A4249DB60,2020-04-09,02:19:30,28.1,52.6,202,403,463,516,0,1,1,50,44,30,48,1,1,50,0.0,0.0,25.039288,121.612939,0,0,0,0,0,0,0,0,0,0,0,0,0,00000000
0C9A4249DB60,2020-04-09,02:19:45,28.1,52.6,202,398,460,515,0,1,1,50,28,24,48,1,1,50,0.0,0.0,25.039288,121.612939,0,0,0,0,0,0,0,0,0,0,0,0,0,00000000
0C9A4249DB60,2020-04-09,02:20:00,28.1,52.7,204,397,469,515,0,1,1,50,33,30,54,2,1,50,0.0,0.0,25.039288,121.612939,0,0,0,0,0,0,0,0,0,0,0,0,0,00000000
0C9A4249DB60,2020-04-09,02:20:15,28.1,52.6,205,395,468,514,0,2,1,50,38,18,36,2,1,50,0.0,0.0,25.039288,121.612939,0,0,0,0,0,0,0,0,0,0,0,0,0,00000000
0C9A4249DB60,2020-04-09,02:20:30,28.1,52.6,202,394,461,514,0,2,1,50,34,20,34,2,1,50,0.0,0.0,25.039288,121.612939,0,0,0,0,0,0,0,0,0,0,0,0,0,00000000
0C9A4249DB60,2020-04-09,02:20:45,28.1,52.7,201,392,453,515,0,2,1,50,32,30,42,2,1,50,0.0,0.0,25.039288,121.612939,0,0,0,0,0,0,0,0,0,0,0,0,0,00000000
0C9A4249DB60,2020-04-09,02:21:00,28.1,52.6,201,392,448,516,0,2,1,50,52,30,36,2,1,50,0.0,0.0,25.039288,121.612939,0,0,0,0,0,0,0,0,0,0,0,0,0,00000000
0C9A4249DB60,2020-04-09,02:21:15,28.1,52.6,202,396,460,516,0,2,1,50,52,26,40,2,1,50,0.0,0.0,25.039288,121.612939,0,0,0,0,0,0,0,0,0,0,0,0,0,00000000
0C9A4249DB60,2020-04-09,02:21:30,28.1,52.6,200,397,464,517,0,2,1,50,32,20,31,2,1,51,0.0,0.0,25.039288,121.612939,0,0,0,0,0,0,0,0,0,0,0,0,0,00000000
0C9A4249DB60,2020-04-09,02:21:45,28.1,52.7,200,386,455,516,0,2,1,51,38,12,47,2,1,50,0.0,0.0,25.039288,121.612939,0,0,0,0,0,0,0,0,0,0,0,0,0,00000000
0C9A4249DB60,2020-04-09,02:22:00,28.1,52.6,200,383,446,516,0,2,1,50,36,30,38,2,1,50,0.0,0.0,25.039288,121.612939,0,0,0,0,0,0,0,0,0,0,0,0,0,00000000
0C9A4249DB60,2020-04-09,02:22:15,28.1,52.6,199,387,451,516,0,2,1,50,32,25,40,2,2,50,0.0,0.0,25.039288,121.612939,0,0,0,0,0,0,0,0,0,0,0,0,0,00000000
0C9A4249DB60,2020-04-09,02:22:30,28.1,52.6,199,392,450,516,0,2,2,50,34,35,40,2,1,50,0.0,0.0,25.039288,121.612939,0,0,0,0,0,0,0,0,0,0,0,0,0,00000000
0C9A4249DB60,2020-04-09,02:22:45,28.1,52.7,202,394,456,517,0,2,1,50,36,18,46,2,1,50,0.0,0.0,25.039288,121.612939,0,0,0,0,0,0,0,0,0,0,0,0,0,00000000
0C9A4249DB60,2020-04-09,02:23:00,28.1,52.7,204,395,460,517,0,2,1,50,38,27,36,2,2,50,0.0,0.0,25.039288,121.612939,0,0,0,0,0,0,0,0,0,0,0,0,0,00000000
0C9A4249DB60,2020-04-09,02:23:15,28.1,52.6,205,388,450,516,0,2,2,50,46,39,44,2,1,50,0.0,0.0,25.039288,121.612939,0,0,0,0,0,0,0,0,0,0,0,0,0,00000000
0C9A4249DB60,2020-04-09,02:23:30,28.1,52.7,205,391,456,517,0,2,1,50,42,22,50,2,1,50,0.0,0.0,25.039288,121.612939,0,0,0,0,0,0,0,0,0,0,0,0,0,00000000
0C9A4249DB60,2020-04-09,02:23:45,28.1,52.7,203,391,463,517,0,2,1,50,39,22,30,1,1,50,0.0,0.0,25.039288,121.612939,0,0,0,0,0,0,0,0,0,0,0,0,0,00000000
0C9A4249DB60,2020-04-09,02:24:00,28.1,52.7,201,392,463,518,0,1,1,50,42,32,51,3,1,49,0.0,0.0,25.039288,121.612939,0,0,0,0,0,0,0,0,0,0,0,0,0,00000000
0C9A4249DB60,2020-04-09,02:24:15,28.1,52.7,199,387,459,518,0,3,1,49,37,37,42,2,2,49,0.0,0.0,25.039288,121.612939,0,0,0,0,0,0,0,0,0,0,0,0,0,00000000
0C9A4249DB60,2020-04-09,02:24:30,28.1,52.7,200,381,447,517,0,2,2,49,39,21,25,1,1,50,0.0,0.0,25.039288,121.612939,0,0,0,0,0,0,0,0,0,0,0,0,0,00000000
0C9A4249DB60,2020-04-09,02:24:45,28.1,52.7,197,377,440,518,0,1,1,50,37,22,26,2,1,50,0.0,0.0,25.039288,121.612939,0,0,0,0,0,0,0,0,0,0,0,0,0,00000000
0C9A4249DB60,2020-04-09,02:25:00,28.1,52.6,200,391,458,517,0,2,1,50,44,23,32,2,2,50,0.0,0.0,25.039288,121.612939,0,0,0,0,0,0,0,0,0,0,0,0,0,00000000
0C9A4249DB60,2020-04-09,02:25:15,28.1,52.7,200,390,462,517,0,2,2,50,34,25,32,2,1,50,0.0,0.0,25.039288,121.612939,0,0,0,0,0,0,0,0,0,0,0,0,0,00000000
0C9A4249DB60,2020-04-09,02:25:30,28.1,52.6,201,390,459,518,0,2,1,50,34,18,32,2,1,50,0.0,0.0,25.039288,121.612939,0,0,0,0,0,0,0,0,0,0,0,0,0,00000000
0C9A4249DB60,2020-04-09,02:25:45,28.1,52.7,201,389,449,518,0,2,1,50,26,16,34,2,1,50,0.0,0.0,25.039288,121.612939,0,0,0,0,0,0,0,0,0,0,0,0,0,00000000
0C9A4249DB60,2020-04-09,02:26:00,28.1,52.6,199,391,448,517,0,2,1,50,42,27,30,2,0,50,0.0,0.0,25.039288,121.612939,0,0,0,0,0,0,0,0,0,0,0,0,0,00000000
0C9A4249DB60,2020-04-09,02:26:15,28.1,52.7,197,387,444,518,0,2,0,50,36,19,42,2,1,50,0.0,0.0,25.039288,121.612939,0,0,0,0,0,0,0,0,0,0,0,0,0,00000000
0C9A4249DB60,2020-04-09,02:26:30,28.1,52.7,199,391,453,518,0,2,1,50,46,18,36,2,1,50,0.0,0.0,25.039288,121.612939,0,0,0,0,0,0,0,0,0,0,0,0,0,00000000
0C9A4249DB60,2020-04-09,02:26:45,28.1,52.7,199,386,456,517,0,2,1,50,50,16,24,2,1,50,0.0,0.0,25.039288,121.612939,0,0,0,0,0,0,0,0,0,0,0,0,0,00000000
0C9A4249DB60,2020-04-09,02:27:00,28.1,52.6,200,385,451,517,0,2,1,50,30,30,42,2,1,50,0.0,0.0,25.039288,121.612939,0,0,0,0,0,0,0,0,0,0,0,0,0,00000000
0C9A4249DB60,2020-04-09,02:27:15,28.1,52.7,199,381,448,517,0,2,1,50,48,21,60,2,0,50,0.0,0.0,25.039288,121.612939,0,0,0,0,0,0,0,0,0,0,0,0,0,00000000
0C9A4249DB60,2020-04-09,02:27:30,28.1,52.7,197,381,437,517,0,2,0,50,44,15,38,2,1,50,0.0,0.0,25.039288,121.612939,0,0,0,0,0,0,0,0,0,0,0,0,0,00000000
0C9A4249DB60,2020-04-09,02:27:45,28.1,52.6,202,390,458,516,0,2,1,50,40,18,34,2,1,50,0.0,0.0,25.039288,121.612939,0,0,0,0,0,0,0,0,0,0,0,0,0,00000000
0C9A4249DB60,2020-04-09,02:28:00,28.1,52.7,200,392,465,517,0,2,1,50,41,26,36,1,1,50,0.0,0.0,25.039288,121.612939,0,0,0,0,0,0,0,0,0,0,0,0,0,00000000
0C9A4249DB60,2020-04-09,02:28:15,28.1,52.6,197,385,453,517,0,1,1,50,45,28,40,2,1,50,0.0,0.0,25.039288,121.612939,0,0,0,0,0,0,0,0,0,0,0,0,0,00000000
0C9A4249DB60,2020-04-09,02:28:30,28.1,52.7,201,391,464,517,0,2,1,50,44,22,28,2,1,50,0.0,0.0,25.039288,121.612939,0,0,0,0,0,0,0,0,0,0,0,0,0,00000000
0C9A4249DB60,2020-04-09,02:28:45,28.1,52.7,200,382,446,517,0,2,1,50,42,20,32,2,1,50,0.0,0.0,25.039288,121.612939,0,0,0,0,0,0,0,0,0,0,0,0,0,00000000
0C9A4249DB60,2020-04-09,02:29:00,28.1,52.6,202,384,449,518,0,2,1,50,32,22,42,2,1,50,0.0,0.0,25.039288,121.612939,0,0,0,0,0,0,0,0,0,0,0,0,0,00000000
0C9A4249DB60,2020-04-09,02:29:15,28.1,52.7,199,384,444,517,0,2,1,50,44,32,44,2,1,50,0.0,0.0,25.039288,121.612939,0,0,0,0,0,0,0,0,0,0,0,0,0,00000000
0C9A4249DB60,2020-04-09,02:29:30,28.1,52.6,200,383,445,516,0,2,1,50,35,34,40,1,1,50,0.0,0.0,25.039288,121.612939,0,0,0,0,0,0,0,0,0,0,0,0,0,00000000
0C9A4249DB60,2020-04-09,02:29:45,28.1,52.7,198,388,448,516,0,1,1,50,37,22,40,2,1,50,0.0,0.0,25.039288,121.612939,0,0,0,0,0,0,0,0,0,0,0,0,0,00000000
0C9A4249DB60,2020-04-09,02:30:00,28.1,52.6,198,384,448,516,0,2,1,50,34,20,38,2,1,50,0.0,0.0,25.039288,121.612939,0,0,0,0,0,0,0,0,0,0,0,0,0,00000000
0C9A4249DB60,2020-04-09,02:30:15,28.1,52.7,197,385,453,516,0,2,1,50,46,20,34,2,1,50,0.0,0.0,25.039288,121.612939,0,0,0,0,0,0,0,0,0,0,0,0,0,00000000
0C9A4249DB60,2020-04-09,02:30:30,28.1,52.7,195,383,447,516,0,2,1,50,34,15,34,2,0,50,0.0,0.0,25.039288,121.612939,0,0,0,0,0,0,0,0,0,0,0,0,0,00000000
0C9A4249DB60,2020-04-09,02:30:45,28.1,52.6,194,383,447,516,0,2,0,50,42,39,60,2,1,50,0.0,0.0,25.039288,121.612939,0,0,0,0,0,0,0,0,0,0,0,0,0,00000000
0C9A4249DB60,2020-04-09,02:31:00,28.1,52.7,195,385,443,516,0,2,1,50,48,16,32,2,1,50,0.0,0.0,25.039288,121.612939,0,0,0,0,0,0,0,0,0,0,0,0,0,00000000
0C9A4249DB60,2020-04-09,02:31:15,28.1,52.6,194,377,433,517,0,2,1,50,40,30,48,2,1,50,0.0,0.0,25.039288,121.612939,0,0,0,0,0,0,0,0,0,0,0,0,0,00000000
0C9A4249DB60,2020-04-09,02:31:30,28.1,52.7,197,388,444,518,0,2,1,50,40,22,54,2,1,50,0.0,0.0,25.039288,121.612939,0,0,0,0,0,0,0,0,0,0,0,0,0,00000000
0C9A4249DB60,2020-04-09,02:31:45,28.1,52.6,196,384,440,518,0,2,1,50,38,22,32,2,1,50,0.0,0.0,25.039288,121.612939,0,0,0,0,0,0,0,0,0,0,0,0,0,00000000
0C9A4249DB60,2020-04-09,02:32:00,28.1,52.7,196,388,442,517,0,2,1,50,41,22,46,1,1,50,0.0,0.0,25.039288,121.612939,0,0,0,0,0,0,0,0,0,0,0,0,0,00000000
0C9A4249DB60,2020-04-09,02:32:15,28.1,52.7,199,391,451,517,0,1,1,50,39,32,40,2,1,50,0.0,0.0,25.039288,121.612939,0,0,0,0,0,0,0,0,0,0,0,0,0,00000000
0C9A4249DB60,2020-04-09,02:32:30,28.1,52.6,199,389,449,517,0,2,1,50,40,42,38,2,1,50,0.0,0.0,25.039288,121.612939,0,0,0,0,0,0,0,0,0,0,0,0,0,00000000
0C9A4249DB60,2020-04-09,02:32:45,28.1,52.7,197,382,441,518,0,2,1,50,40,30,50,2,1,50,0.0,0.0,25.039288,121.612939,0,0,0,0,0,0,0,0,0,0,0,0,0,00000000
0C9A4249DB60,2020-04-09,02:33:00,28.1,52.6,200,390,447,517,0,2,1,50,40,18,30,2,1,50,0.0,0.0,25.039288,121.612939,0,0,0,0,0,0,0,0,0,0,0,0,0,00000000
0C9A4249DB60,2020-04-09,02:33:15,28.1,52.7,197,387,440,517,0,2,1,50,40,26,33,2,1,49,0.0,0.0,25.039288,121.612939,0,0,0,0,0,0,0,0,0,0,0,0,0,00000000
0C9A4249DB60,2020-04-09,02:33:30,28.1,52.7,198,383,440,517,0,2,1,49,46,20,46,2,1,49,0.0,0.0,25.039288,121.612939,0,0,0,0,0,0,0,0,0,0,0,0,0,00000000
0C9A4249DB60,2020-04-09,02:33:45,28.1,52.6,200,383,439,517,0,2,1,49,36,17,31,2,0,50,0.0,0.0,25.039288,121.612939,0,0,0,0,0,0,0,0,0,0,0,0,0,00000000
0C9A4249DB60,2020-04-09,02:34:00,28.1,52.6,200,383,442,517,0,2,0,50,28,13,34,2,1,50,0.0,0.0,25.039288,121.612939,0,0,0,0,0,0,0,0,0,0,0,0,0,00000000
0C9A4249DB60,2020-04-09,02:34:15,28.1,52.6,201,386,445,518,0,2,1,50,45,32,34,1,1,50,0.0,0.0,25.039288,121.612939,0,0,0,0,0,0,0,0,0,0,0,0,0,00000000
0C9A4249DB60,2020-04-09,02:34:30,28.1,52.7,199,380,447,519,0,1,1,50,37,36,38,2,1,50,0.0,0.0,25.039288,121.612939,0,0,0,0,0,0,0,0,0,0,0,0,0,00000000
0C9A4249DB60,2020-04-09,02:34:45,28.1,52.7,197,381,443,517,0,2,1,50,45,34,48,1,1,50,0.0,0.0,25.039288,121.612939,0,0,0,0,0,0,0,0,0,0,0,0,0,00000000
0C9A4249DB60,2020-04-09,02:35:00,28.1,52.7,197,378,439,517,0,1,1,50,45,16,58,2,1,50,0.0,0.0,25.039288,121.612939,0,0,0,0,0,0,0,0,0,0,0,0,0,00000000
0C9A4249DB60,2020-04-09,02:35:15,28.1,52.7,197,379,437,517,0,2,1,50,40,19,30,2,0,50,0.0,0.0,25.039288,121.612939,0,0,0,0,0,0,0,0,0,0,0,0,0,00000000
0C9A4249DB60,2020-04-09,02:35:30,28.1,52.7,195,375,436,517,0,2,0,50,40,21,56,2,1,50,0.0,0.0,25.039288,121.612939,0,0,0,0,0,0,0,0,0,0,0,0,0,00000000
0C9A4249DB60,2020-04-09,02:35:45,28.1,52.7,198,377,439,517,0,2,1,50,28,26,32,2,1,50,0.0,0.0,25.039288,121.612939,0,0,0,0,0,0,0,0,0,0,0,0,0,00000000
0C9A4249DB60,2020-04-09,02:36:00,28.1,52.6,199,379,452,518,0,2,1,50,44,32,48,2,1,50,0.0,0.0,25.039288,121.612939,0,0,0,0,0,0,0,0,0,0,0,0,0,00000000
0C9A4249DB60,2020-04-09,02:36:15,28.1,52.7,198,377,445,519,0,2,1,50,38,16,50,2,1,50,0.0,0.0,25.039288,121.612939,0,0,0,0,0,0,0,0,0,0,0,0,0,00000000
0C9A4249DB60,2020-04-09,02:36:30,28.1,52.6,197,381,451,519,0,2,1,50,52,18,42,2,1,50,0.0,0.0,25.039288,121.612939,0,0,0,0,0,0,0,0,0,0,0,0,0,00000000
0C9A4249DB60,2020-04-09,02:36:45,28.1,52.7,195,374,440,518,0,2,1,50,47,14,52,1,1,50,0.0,0.0,25.039288,121.612939,0,0,0,0,0,0,0,0,0,0,0,0,0,00000000
0C9A4249DB60,2020-04-09,02:37:00,28.1,52.6,194,379,441,518,0,1,1,50,51,16,30,2,1,50,0.0,0.0,25.039288,121.612939,0,0,0,0,0,0,0,0,0,0,0,0,0,00000000
0C9A4249DB60,2020-04-09,02:37:15,28.1,52.7,194,377,442,517,0,2,1,50,42,28,38,2,1,50,0.0,0.0,25.039288,121.612939,0,0,0,0,0,0,0,0,0,0,0,0,0,00000000
0C9A4249DB60,2020-04-09,02:37:30,28.1,52.7,191,374,440,517,0,2,1,50,48,24,44,2,1,50,0.0,0.0,25.039288,121.612939,0,0,0,0,0,0,0,0,0,0,0,0,0,00000000
0C9A4249DB60,2020-04-09,02:37:45,28.1,52.7,193,373,445,517,0,2,1,50,42,24,38,2,1,50,0.0,0.0,25.039288,121.612939,0,0,0,0,0,0,0,0,0,0,0,0,0,00000000
0C9A4249DB60,2020-04-09,02:38:00,28.1,52.7,194,371,443,517,0,2,1,50,40,26,38,2,1,50,0.0,0.0,25.039288,121.612939,0,0,0,0,0,0,0,0,0,0,0,0,0,00000000
0C9A4249DB60,2020-04-09,02:38:15,28.1,52.7,198,377,434,517,0,2,1,50,49,24,42,1,1,50,0.0,0.0,25.039288,121.612939,0,0,0,0,0,0,0,0,0,0,0,0,0,00000000
0C9A4249DB60,2020-04-09,02:38:30,28.1,52.7,195,380,435,517,0,1,1,50,36,20,53,1,1,49,0.0,0.0,25.039288,121.612939,0,0,0,0,0,0,0,0,0,0,0,0,0,00000000
0C9A4249DB60,2020-04-09,02:38:45,28.1,52.7,194,377,436,516,0,1,1,49,45,36,43,2,1,50,0.0,0.0,25.039288,121.612939,0,0,0,0,0,0,0,0,0,0,0,0,0,00000000
0C9A4249DB60,2020-04-09,02:39:00,28.1,52.7,195,376,440,516,0,2,1,50,40,28,52,2,1,50,0.0,0.0,25.039288,121.612939,0,0,0,0,0,0,0,0,0,0,0,0,0,00000000
0C9A4249DB60,2020-04-09,02:39:15,28.1,52.7,198,379,447,516,0,2,1,50,48,18,44,2,1,50,0.0,0.0,25.039288,121.612939,0,0,0,0,0,0,0,0,0,0,0,0,0,00000000
0C9A4249DB60,2020-04-09,02:39:30,28.1,52.7,198,373,435,516,0,2,1,50,36,36,41,2,1,49,0.0,0.0,25.039288,121.612939,0,0,0,0,0,0,0,0,0,0,0,0,0,00000000
0C9A4249DB60,2020-04-09,02:39:45,28.1,52.7,192,364,420,516,0,2,1,49,34,26,42,2,1,51,0.0,0.0,25.039288,121.612939,0,0,0,0,0,0,0,0,0,0,0,0,0,00000000
0C9A4249DB60,2020-04-09,02:40:00,28.1,52.7,192,368,425,517,0,2,1,51,44,22,31,2,1,50,0.0,0.0,25.039288,121.612939,0,0,0,0,0,0,0,0,0,0,0,0,0,00000000
0C9A4249DB60,2020-04-09,02:40:15,28.1,52.7,192,373,437,517,0,2,1,50,32,34,30,2,1,50,0.0,0.0,25.039288,121.612939,0,0,0,0,0,0,0,0,0,0,0,0,0,00000000
0C9A4249DB60,2020-04-09,02:40:30,28.1,52.7,192,375,442,517,0,2,1,50,54,38,44,2,1,50,0.0,0.0,25.039288,121.612939,0,0,0,0,0,0,0,0,0,0,0,0,0,00000000
0C9A4249DB60,2020-04-09,02:40:45,28.1,52.7,194,374,445,517,0,2,1,50,42,32,36,2,1,50,0.0,0.0,25.039288,121.612939,0,0,0,0,0,0,0,0,0,0,0,0,0,00000000
0C9A4249DB60,2020-04-09,02:41:00,28.1,52.6,193,371,435,517,0,2,1,50,42,22,30,2,1,50,0.0,0.0,25.039288,121.612939,0,0,0,0,0,0,0,0,0,0,0,0,0,00000000
0C9A4249DB60,2020-04-09,02:41:15,28.1,52.7,194,372,435,517,0,2,1,50,33,24,48,1,1,50,0.0,0.0,25.039288,121.612939,0,0,0,0,0,0,0,0,0,0,0,0,0,00000000
0C9A4249DB60,2020-04-09,02:41:30,28.1,52.7,195,376,435,517,0,1,1,50,58,16,51,1,1,51,0.0,0.0,25.039288,121.612939,0,0,0,0,0,0,0,0,0,0,0,0,0,00000000
0C9A4249DB60,2020-04-09,02:41:45,28.1,52.7,195,377,433,517,0,1,1,51,49,26,35,2,1,50,0.0,0.0,25.039288,121.612939,0,0,0,0,0,0,0,0,0,0,0,0,0,00000000
0C9A4249DB60,2020-04-09,02:42:00,28.1,52.7,194,371,434,517,0,2,1,50,40,30,50,2,1,50,0.0,0.0,25.039288,121.612939,0,0,0,0,0,0,0,0,0,0,0,0,0,00000000
0C9A4249DB60,2020-04-09,02:42:15,28.1,52.7,194,367,430,516,0,2,1,50,52,32,40,2,1,50,0.0,0.0,25.039288,121.612939,0,0,0,0,0,0,0,0,0,0,0,0,0,00000000
0C9A4249DB60,2020-04-09,02:42:30,28.1,52.7,193,365,430,516,0,2,1,50,39,25,22,3,0,50,0.0,0.0,25.039288,121.612939,0,0,0,0,0,0,0,0,0,0,0,0,0,00000000
0C9A4249DB60,2020-04-09,02:42:45,28.1,52.7,193,367,433,517,0,3,0,50,37,25,38,2,1,50,0.0,0.0,25.039288,121.612939,0,0,0,0,0,0,0,0,0,0,0,0,0,00000000
0C9A4249DB60,2020-04-09,02:43:00,28.1,52.7,193,364,424,517,0,2,1,50,32,20,41,2,1,49,0.0,0.0,25.039288,121.612939,0,0,0,0,0,0,0,0,0,0,0,0,0,00000000
0C9A4249DB60,2020-04-09,02:43:15,28.1,52.7,195,365,429,518,0,2,1,49,54,24,40,2,1,49,0.0,0.0,25.039288,121.612939,0,0,0,0,0,0,0,0,0,0,0,0,0,00000000
0C9A4249DB60,2020-04-09,02:43:30,28.1,52.7,195,369,435,518,0,2,1,49,52,24,43,2,1,50,0.0,0.0,25.039288,121.612939,0,0,0,0,0,0,0,0,0,0,0,0,0,00000000
0C9A4249DB60,2020-04-09,02:43:45,28.1,52.7,195,372,441,522,0,2,1,50,49,24,40,1,1,50,0.0,0.0,25.039288,121.612939,0,0,0,0,0,0,0,0,0,0,0,0,0,00000000
0C9A4249DB60,2020-04-09,02:44:00,28.1,52.7,193,378,444,522,0,1,1,50,45,32,32,2,1,50,0.0,0.0,25.039288,121.612939,0,0,0,0,0,0,0,0,0,0,0,0,0,00000000
0C9A4249DB60,2020-04-09,02:44:15,28.1,52.7,192,369,431,521,0,2,1,50,40,24,34,2,1,50,0.0,0.0,25.039288,121.612939,0,0,0,0,0,0,0,0,0,0,0,0,0,00000000
0C9A4249DB60,2020-04-09,02:44:30,28.1,52.7,191,367,424,522,0,2,1,50,48,26,42,2,1,50,0.0,0.0,25.039288,121.612939,0,0,0,0,0,0,0,0,0,0,0,0,0,00000000
0C9A4249DB60,2020-04-09,02:44:45,28.1,52.7,191,367,426,522,0,2,1,50,38,24,48,2,1,50,0.0,0.0,25.039288,121.612939,0,0,0,0,0,0,0,0,0,0,0,0,0,00000000
0C9A4249DB60,2020-04-09,02:45:00,28.1,52.7,191,367,417,521,0,2,1,50,39,22,43,1,1,49,0.0,0.0,25.039288,121.612939,0,0,0,0,0,0,0,0,0,0,0,0,0,00000000
0C9A4249DB60,2020-04-09,02:45:15,28.1,52.7,192,367,421,521,0,1,1,49,43,26,53,2,1,50,0.0,0.0,25.039288,121.612939,0,0,0,0,0,0,0,0,0,0,0,0,0,00000000
0C9A4249DB60,2020-04-09,02:45:30,28.1,52.7,191,365,420,521,0,2,1,50,48,29,58,2,2,50,0.0,0.0,25.039288,121.612939,0,0,0,0,0,0,0,0,0,0,0,0,0,00000000
0C9A4249DB60,2020-04-09,02:45:45,28.1,52.7,192,363,419,521,0,2,2,50,30,37,46,2,1,50,0.0,0.0,25.039288,121.612939,0,0,0,0,0,0,0,0,0,0,0,0,0,00000000
0C9A4249DB60,2020-04-09,02:46:00,28.1,52.7,192,367,423,520,0,2,1,50,50,30,22,2,1,50,0.0,0.0,25.039288,121.612939,0,0,0,0,0,0,0,0,0,0,0,0,0,00000000
0C9A4249DB60,2020-04-09,02:46:15,28.1,52.7,191,366,422,519,0,2,1,50,60,22,34,2,1,50,0.0,0.0,25.039288,121.612939,0,0,0,0,0,0,0,0,0,0,0,0,0,00000000
0C9A4249DB60,2020-04-09,02:46:30,28.1,52.7,193,371,421,520,0,2,1,50,47,30,55,1,1,49,0.0,0.0,25.039288,121.612939,0,0,0,0,0,0,0,0,0,0,0,0,0,00000000
0C9A4249DB60,2020-04-09,02:46:45,28.1,52.7,192,369,420,519,0,1,1,49,37,26,35,2,1,50,0.0,0.0,25.039288,121.612939,0,0,0,0,0,0,0,0,0,0,0,0,0,00000000
0C9A4249DB60,2020-04-09,02:47:00,28.1,52.7,192,373,419,518,0,2,1,50,38,12,43,2,1,49,0.0,0.0,25.039288,121.612939,0,0,0,0,0,0,0,0,0,0,0,0,0,00000000
0C9A4249DB60,2020-04-09,02:47:15,28.1,52.7,193,372,427,518,0,2,1,49,34,20,45,2,1,50,0.0,0.0,25.039288,121.612939,0,0,0,0,0,0,0,0,0,0,0,0,0,00000000
0C9A4249DB60,2020-04-09,02:47:30,28.1,52.7,194,375,429,519,0,2,1,50,49,49,56,3,0,50,0.0,0.0,25.039288,121.612939,0,0,0,0,0,0,0,0,0,0,0,0,0,00000000
0C9A4249DB60,2020-04-09,02:47:45,28.1,52.7,194,373,436,519,0,3,0,50,47,25,38,2,1,50,0.0,0.0,25.039288,121.612939,0,0,0,0,0,0,0,0,0,0,0,0,0,00000000
0C9A4249DB60,2020-04-09,02:48:00,28.1,52.7,196,372,434,519,0,2,1,50,30,26,44,2,1,50,0.0,0.0,25.039288,121.612939,0,0,0,0,0,0,0,0,0,0,0,0,0,00000000
0C9A4249DB60,2020-04-09,02:48:15,28.1,52.7,195,372,432,519,0,2,1,50,44,14,42,2,1,50,0.0,0.0,25.039288,121.612939,0,0,0,0,0,0,0,0,0,0,0,0,0,00000000
0C9A4249DB60,2020-04-09,02:48:30,28.1,52.7,195,369,429,520,0,2,1,50,44,28,42,2,1,50,0.0,0.0,25.039288,121.612939,0,0,0,0,0,0,0,0,0,0,0,0,0,00000000
0C9A4249DB60,2020-04-09,02:48:45,28.1,52.7,193,369,432,520,0,2,1,50,38,22,34,2,1,50,0.0,0.0,25.039288,121.612939,0,0,0,0,0,0,0,0,0,0,0,0,0,00000000
0C9A4249DB60,2020-04-09,02:49:00,28.1,52.7,191,370,435,520,0,2,1,50,38,10,36,2,1,50,0.0,0.0,25.039288,121.612939,0,0,0,0,0,0,0,0,0,0,0,0,0,00000000
0C9A4249DB60,2020-04-09,02:49:15,28.1,52.7,195,376,438,520,0,2,1,50,26,26,40,2,1,50,0.0,0.0,25.039288,121.612939,0,0,0,0,0,0,0,0,0,0,0,0,0,00000000
0C9A4249DB60,2020-04-09,02:49:30,28.1,52.7,192,364,423,519,0,2,1,50,46,14,30,2,1,50,0.0,0.0,25.039288,121.612939,0,0,0,0,0,0,0,0,0,0,0,0,0,00000000
0C9A4249DB60,2020-04-09,02:49:45,28.1,52.7,192,367,415,519,0,2,1,50,47,33,30,1,2,50,0.0,0.0,25.039288,121.612939,0,0,0,0,0,0,0,0,0,0,0,0,0,00000000
0C9A4249DB60,2020-04-09,02:50:00,28.1,52.7,191,367,414,518,0,1,2,50,31,27,38,2,1,50,0.0,0.0,25.039288,121.612939,0,0,0,0,0,0,0,0,0,0,0,0,0,00000000
0C9A4249DB60,2020-04-09,02:50:15,28.1,52.7,191,366,409,517,0,2,1,50,38,28,40,2,1,50,0.0,0.0,25.039288,121.612939,0,0,0,0,0,0,0,0,0,0,0,0,0,00000000
0C9A4249DB60,2020-04-09,02:50:30,28.1,52.7,190,362,411,518,0,2,1,50,42,12,38,2,1,50,0.0,0.0,25.039288,121.612939,0,0,0,0,0,0,0,0,0,0,0,0,0,00000000
0C9A4249DB60,2020-04-09,02:50:45,28.1,52.7,189,359,414,518,0,2,1,50,26,12,35,2,1,49,0.0,0.0,25.039288,121.612939,0,0,0,0,0,0,0,0,0,0,0,0,0,00000000
0C9A4249DB60,2020-04-09,02:51:00,28.1,52.6,190,366,424,519,0,2,1,49,33,20,43,3,1,50,0.0,0.0,25.039288,121.612939,0,0,0,0,0,0,0,0,0,0,0,0,0,00000000
0C9A4249DB60,2020-04-09,02:51:15,28.1,52.7,193,367,421,519,0,3,1,50,37,24,34,2,1,50,0.0,0.0,25.039288,121.612939,0,0,0,0,0,0,0,0,0,0,0,0,0,00000000
0C9A4249DB60,2020-04-09,02:51:30,28.1,52.7,192,363,412,518,0,2,1,50,41,12,41,1,1,49,0.0,0.0,25.039288,121.612939,0,0,0,0,0,0,0,0,0,0,0,0,0,00000000
0C9A4249DB60,2020-04-09,02:51:45,28.1,52.7,193,360,412,518,0,1,1,49,31,24,51,2,1,50,0.0,0.0,25.039288,121.612939,0,0,0,0,0,0,0,0,0,0,0,0,0,00000000
0C9A4249DB60,2020-04-09,02:52:00,28.1,52.6,190,357,410,518,0,2,1,50,56,12,46,2,1,50,0.0,0.0,25.039288,121.612939,0,0,0,0,0,0,0,0,0,0,0,0,0,00000000
0C9A4249DB60,2020-04-09,02:52:15,28.1,52.6,189,358,417,518,0,2,1,50,52,34,44,2,1,50,0.0,0.0,25.039288,121.612939,0,0,0,0,0,0,0,0,0,0,0,0,0,00000000
0C9A4249DB60,2020-04-09,02:52:30,28.1,52.7,190,364,420,518,0,2,1,50,56,28,50,2,1,50,0.0,0.0,25.039288,121.612939,0,0,0,0,0,0,0,0,0,0,0,0,0,00000000
0C9A4249DB60,2020-04-09,02:52:45,28.1,52.7,191,365,425,519,0,2,1,50,34,40,34,2,1,50,0.0,0.0,25.039288,121.612939,0,0,0,0,0,0,0,0,0,0,0,0,0,00000000
0C9A4249DB60,2020-04-09,02:53:00,28.1,52.7,190,361,427,518,0,2,1,50,48,24,38,2,1,50,0.0,0.0,25.039288,121.612939,0,0,0,0,0,0,0,0,0,0,0,0,0,00000000
0C9A4249DB60,2020-04-09,02:53:15,28.1,52.7,189,357,417,518,0,2,1,50,41,24,54,1,1,50,0.0,0.0,25.039288,121.612939,0,0,0,0,0,0,0,0,0,0,0,0,0,00000000
0C9A4249DB60,2020-04-09,02:53:30,28.1,52.7,189,354,412,518,0,1,1,50,47,26,52,2,1,50,0.0,0.0,25.039288,121.612939,0,0,0,0,0,0,0,0,0,0,0,0,0,00000000
0C9A4249DB60,2020-04-09,02:53:45,28.1,52.7,189,357,415,517,0,2,1,50,42,26,32,2,1,50,0.0,0.0,25.039288,121.612939,0,0,0,0,0,0,0,0,0,0,0,0,0,00000000
0C9A4249DB60,2020-04-09,02:54:00,28.1,52.7,188,361,419,516,0,2,1,50,50,26,32,2,1,50,0.0,0.0,25.039288,121.612939,0,0,0,0,0,0,0,0,0,0,0,0,0,00000000
0C9A4249DB60,2020-04-09,02:54:15,28.1,52.7,189,363,421,517,0,2,1,50,30,20,30,2,1,50,0.0,0.0,25.039288,121.612939,0,0,0,0,0,0,0,0,0,0,0,0,0,00000000
0C9A4249DB60,2020-04-09,02:54:30,28.1,52.7,188,359,416,517,0,2,1,50,36,16,39,2,1,49,0.0,0.0,25.039288,121.612939,0,0,0,0,0,0,0,0,0,0,0,0,0,00000000
0C9A4249DB60,2020-04-09,02:54:45,28.1,52.7,189,358,415,517,0,2,1,49,33,22,45,1,1,50,0.0,0.0,25.039288,121.612939,0,0,0,0,0,0,0,0,0,0,0,0,0,00000000
0C9A4249DB60,2020-04-09,02:55:00,28.1,52.7,191,355,418,517,0,1,1,50,53,24,40,2,1,50,0.0,0.0,25.039288,121.612939,0,0,0,0,0,0,0,0,0,0,0,0,0,00000000
0C9A4249DB60,2020-04-09,02:55:15,28.1,52.7,188,356,423,517,0,2,1,50,30,30,31,2,1,49,0.0,0.0,25.039288,121.612939,0,0,0,0,0,0,0,0,0,0,0,0,0,00000000
0C9A4249DB60,2020-04-09,02:55:30,28.1,52.6,188,362,421,517,0,2,1,49,46,24,27,2,1,50,0.0,0.0,25.039288,121.612939,0,0,0,0,0,0,0,0,0,0,0,0,0,00000000
0C9A4249DB60,2020-04-09,02:55:45,28.1,52.7,189,359,414,517,0,2,1,50,46,34,33,2,1,49,0.0,0.0,25.039288,121.612939,0,0,0,0,0,0,0,0,0,0,0,0,0,00000000
0C9A4249DB60,2020-04-09,02:56:00,28.1,52.7,190,361,414,518,0,2,1,49,36,30,41,2,1,50,0.0,0.0,25.039288,121.612939,0,0,0,0,0,0,0,0,0,0,0,0,0,00000000
0C9A4249DB60,2020-04-09,02:56:15,28.1,52.7,188,356,412,517,0,2,1,50,26,20,48,2,1,50,0.0,0.0,25.039288,121.612939,0,0,0,0,0,0,0,0,0,0,0,0,0,00000000
0C9A4249DB60,2020-04-09,02:56:30,28.1,52.7,188,357,413,518,0,2,1,50,29,20,44,1,1,50,0.0,0.0,25.039288,121.612939,0,0,0,0,0,0,0,0,0,0,0,0,0,00000000
0C9A4249DB60,2020-04-09,02:56:45,28.1,52.7,190,361,414,518,0,1,1,50,37,22,24,2,1,50,0.0,0.0,25.039288,121.612939,0,0,0,0,0,0,0,0,0,0,0,0,0,00000000
0C9A4249DB60,2020-04-09,02:57:00,28.1,52.6,194,367,422,519,0,2,1,50,30,18,28,2,1,50,0.0,0.0,25.039288,121.612939,0,0,0,0,0,0,0,0,0,0,0,0,0,00000000
0C9A4249DB60,2020-04-09,02:57:15,28.1,52.7,188,364,417,518,0,2,1,50,44,28,40,2,1,50,0.0,0.0,25.039288,121.612939,0,0,0,0,0,0,0,0,0,0,0,0,0,00000000
0C9A4249DB60,2020-04-09,02:57:30,28.1,52.7,191,367,420,518,0,2,1,50,43,36,40,1,1,50,0.0,0.0,25.039288,121.612939,0,0,0,0,0,0,0,0,0,0,0,0,0,00000000
0C9A4249DB60,2020-04-09,02:57:45,28.1,52.7,188,360,412,518,0,1,1,50,40,16,44,1,1,50,0.0,0.0,25.039288,121.612939,0,0,0,0,0,0,0,0,0,0,0,0,0,00000000
0C9A4249DB60,2020-04-09,02:58:00,28.1,52.7,187,356,412,518,0,1,1,50,46,14,32,3,1,50,0.0,0.0,25.039288,121.612939,0,0,0,0,0,0,0,0,0,0,0,0,0,00000000
0C9A4249DB60,2020-04-09,02:58:15,28.1,52.7,185,353,415,518,0,3,1,50,33,24,33,2,1,49,0.0,0.0,25.039288,121.612939,0,0,0,0,0,0,0,0,0,0,0,0,0,00000000
0C9A4249DB60,2020-04-09,02:58:30,28.1,52.7,187,359,420,518,0,2,1,49,34,18,43,2,1,50,0.0,0.0,25.039288,121.612939,0,0,0,0,0,0,0,0,0,0,0,0,0,00000000
0C9A4249DB60,2020-04-09,02:58:45,28.1,52.7,184,355,411,518,0,2,1,50,44,18,24,2,1,50,0.0,0.0,25.039288,121.612939,0,0,0,0,0,0,0,0,0,0,0,0,0,00000000
0C9A4249DB60,2020-04-09,02:59:00,28.1,52.7,189,360,409,518,0,2,1,50,41,28,38,1,1,50,0.0,0.0,25.039288,121.612939,0,0,0,0,0,0,0,0,0,0,0,0,0,00000000
0C9A4249DB60,2020-04-09,02:59:15,28.1,52.6,188,355,403,519,0,1,1,50,35,24,42,2,1,50,0.0,0.0,25.039288,121.612939,0,0,0,0,0,0,0,0,0,0,0,0,0,00000000
0C9A4249DB60,2020-04-09,02:59:30,28.1,52.7,187,355,407,518,0,2,1,50,40,36,38,2,1,50,0.0,0.0,25.039288,121.612939,0,0,0,0,0,0,0,0,0,0,0,0,0,00000000
0C9A4249DB60,2020-04-09,02:59:45,28.1,52.7,188,360,418,518,0,2,1,50,45,38,36,1,1,50,0.0,0.0,25.039288,121.612939,0,0,0,0,0,0,0,0,0,0,0,0,0,00000000
0C9A4249DB60,2020-04-09,03:00:00,28.1,52.7,189,362,423,519,0,1,1,50,41,34,44,2,1,50,0.0,0.0,25.039288,121.612939,0,0,0,0,0,0,0,0,0,0,0,0,0,00000000
0C9A4249DB60,2020-04-09,03:00:15,28.1,52.7,188,356,422,519,0,2,1,50,32,24,42,2,1,50,0.0,0.0,25.039288,121.612939,0,0,0,0,0,0,0,0,0,0,0,0,0,00000000
0C9A4249DB60,2020-04-09,03:00:30,28.1,52.7,188,356,413,518,0,2,1,50,42,26,44,2,1,50,0.0,0.0,25.039288,121.612939,0,0,0,0,0,0,0,0,0,0,0,0,0,00000000
0C9A4249DB60,2020-04-09,03:00:45,28.1,52.7,186,353,411,519,0,2,1,50,53,24,41,3,1,49,0.0,0.0,25.039288,121.612939,0,0,0,0,0,0,0,0,0,0,0,0,0,00000000
0C9A4249DB60,2020-04-09,03:01:00,28.1,52.7,186,351,410,518,0,3,1,49,35,20,45,2,1,50,0.0,0.0,25.039288,121.612939,0,0,0,0,0,0,0,0,0,0,0,0,0,00000000
0C9A4249DB60,2020-04-09,03:01:15,28.1,52.7,187,356,415,517,0,2,1,50,44,34,44,2,1,50,0.0,0.0,25.039288,121.612939,0,0,0,0,0,0,0,0,0,0,0,0,0,00000000
0C9A4249DB60,2020-04-09,03:01:30,28.1,52.7,187,356,412,516,0,2,1,50,32,18,38,2,1,50,0.0,0.0,25.039288,121.612939,0,0,0,0,0,0,0,0,0,0,0,0,0,00000000
0C9A4249DB60,2020-04-09,03:01:45,28.1,52.7,188,357,417,516,0,2,1,50,30,16,34,2,1,50,0.0,0.0,25.039288,121.612939,0,0,0,0,0,0,0,0,0,0,0,0,0,00000000
0C9A4249DB60,2020-04-09,03:02:00,28.1,52.7,183,351,412,517,0,2,1,50,37,16,26,1,1,50,0.0,0.0,25.039288,121.612939,0,0,0,0,0,0,0,0,0,0,0,0,0,00000000
0C9A4249DB60,2020-04-09,03:02:15,28.1,52.7,183,354,411,517,0,1,1,50,47,18,32,2,1,50,0.0,0.0,25.039288,121.612939,0,0,0,0,0,0,0,0,0,0,0,0,0,00000000
0C9A4249DB60,2020-04-09,03:02:30,28.1,52.7,185,353,407,517,0,2,1,50,49,42,28,1,1,50,0.0,0.0,25.039288,121.612939,0,0,0,0,0,0,0,0,0,0,0,0,0,00000000
0C9A4249DB60,2020-04-09,03:02:45,28.1,52.7,188,357,411,518,0,1,1,50,43,34,52,2,1,50,0.0,0.0,25.039288,121.612939,0,0,0,0,0,0,0,0,0,0,0,0,0,00000000
0C9A4249DB60,2020-04-09,03:03:00,28.1,52.7,189,354,406,518,0,2,1,50,38,30,40,2,1,50,0.0,0.0,25.039288,121.612939,0,0,0,0,0,0,0,0,0,0,0,0,0,00000000
0C9A4249DB60,2020-04-09,03:03:15,28.1,52.7,188,349,405,518,0,2,1,50,56,22,38,2,1,50,0.0,0.0,25.039288,121.612939,0,0,0,0,0,0,0,0,0,0,0,0,0,00000000
0C9A4249DB60,2020-04-09,03:03:30,28.1,52.7,189,348,409,519,0,2,1,50,48,28,44,2,1,50,0.0,0.0,25.039288,121.612939,0,0,0,0,0,0,0,0,0,0,0,0,0,00000000
0C9A4249DB60,2020-04-09,03:03:45,28.1,52.7,187,353,415,518,0,2,1,50,44,16,30,2,1,50,0.0,0.0,25.039288,121.612939,0,0,0,0,0,0,0,0,0,0,0,0,0,00000000
0C9A4249DB60,2020-04-09,03:04:00,28.1,52.7,185,353,415,518,0,2,1,50,30,10,38,2,1,50,0.0,0.0,25.039288,121.612939,0,0,0,0,0,0,0,0,0,0,0,0,0,00000000
0C9A4249DB60,2020-04-09,03:04:15,28.1,52.7,186,351,409,518,0,2,1,50,54,22,26,0,1,50,0.0,0.0,25.039288,121.612939,0,0,0,0,0,0,0,0,0,0,0,0,0,00000000
0C9A4249DB60,2020-04-09,03:04:30,28.1,52.7,186,351,406,517,0,0,1,50,34,24,38,2,1,50,0.0,0.0,25.039288,121.612939,0,0,0,0,0,0,0,0,0,0,0,0,0,00000000
0C9A4249DB60,2020-04-09,03:04:45,28.1,52.7,186,351,406,517,0,2,1,50,39,10,30,1,1,50,0.0,0.0,25.039288,121.612939,0,0,0,0,0,0,0,0,0,0,0,0,0,00000000
0C9A4249DB60,2020-04-09,03:05:00,28.1,52.7,185,355,407,517,0,1,1,50,35,14,29,2,1,49,0.0,0.0,25.039288,121.612939,0,0,0,0,0,0,0,0,0,0,0,0,0,00000000
0C9A4249DB60,2020-04-09,03:05:15,28.1,52.7,184,358,403,517,0,2,1,49,28,16,33,2,1,50,0.0,0.0,25.039288,121.612939,0,0,0,0,0,0,0,0,0,0,0,0,0,00000000
0C9A4249DB60,2020-04-09,03:05:30,28.1,52.7,185,355,396,517,0,2,1,50,28,18,38,2,1,50,0.0,0.0,25.039288,121.612939,0,0,0,0,0,0,0,0,0,0,0,0,0,00000000
0C9A4249DB60,2020-04-09,03:05:45,28.1,52.7,185,354,398,517,0,2,1,50,32,16,34,2,1,50,0.0,0.0,25.039288,121.612939,0,0,0,0,0,0,0,0,0,0,0,0,0,00000000
0C9A4249DB60,2020-04-09,03:06:00,28.1,52.7,183,354,401,517,0,2,1,50,44,28,43,0,1,51,0.0,0.0,25.039288,121.612939,0,0,0,0,0,0,0,0,0,0,0,0,0,00000000
0C9A4249DB60,2020-04-09,03:06:15,28.1,52.7,185,349,409,516,0,0,1,51,28,18,31,2,1,50,0.0,0.0,25.039288,121.612939,0,0,0,0,0,0,0,0,0,0,0,0,0,00000000
0C9A4249DB60,2020-04-09,03:06:30,28.1,52.7,185,347,407,516,0,2,1,50,48,32,38,2,1,50,0.0,0.0,25.039288,121.612939,0,0,0,0,0,0,0,0,0,0,0,0,0,00000000
0C9A4249DB60,2020-04-09,03:06:45,28.1,52.7,185,349,403,516,0,2,1,50,40,18,36,2,1,50,0.0,0.0,25.039288,121.612939,0,0,0,0,0,0,0,0,0,0,0,0,0,00000000
0C9A4249DB60,2020-04-09,03:07:00,28.1,52.7,187,351,402,516,0,2,1,50,46,28,37,2,1,49,0.0,0.0,25.039288,121.612939,0,0,0,0,0,0,0,0,0,0,0,0,0,00000000
0C9A4249DB60,2020-04-09,03:07:15,28.1,52.7,189,352,405,516,0,2,1,49,44,22,37,2,1,50,0.0,0.0,25.039288,121.612939,0,0,0,0,0,0,0,0,0,0,0,0,0,00000000
0C9A4249DB60,2020-04-09,03:07:30,28.1,52.8,189,351,406,516,0,2,1,50,32,28,42,2,1,50,0.0,0.0,25.039288,121.612939,0,0,0,0,0,0,0,0,0,0,0,0,0,00000000
0C9A4249DB60,2020-04-09,03:07:45,28.1,52.7,189,353,407,515,0,2,1,50,36,22,49,2,1,51,0.0,0.0,25.039288,121.612939,0,0,0,0,0,0,0,0,0,0,0,0,0,00000000
0C9A4249DB60,2020-04-09,03:08:00,28.1,52.7,186,350,403,513,0,2,1,51,44,18,21,2,1,50,0.0,0.0,25.039288,121.612939,0,0,0,0,0,0,0,0,0,0,0,0,0,00000000
0C9A4249DB60,2020-04-09,03:08:15,28.1,52.7,186,350,399,514,0,2,1,50,56,31,47,2,2,49,0.0,0.0,25.039288,121.612939,0,0,0,0,0,0,0,0,0,0,0,0,0,00000000
0C9A4249DB60,2020-04-09,03:08:30,28.1,52.7,185,350,403,514,0,2,2,49,34,25,35,2,1,50,0.0,0.0,25.039288,121.612939,0,0,0,0,0,0,0,0,0,0,0,0,0,00000000
0C9A4249DB60,2020-04-09,03:08:45,28.1,52.7,184,347,400,514,0,2,1,50,30,30,43,2,1,49,0.0,0.0,25.039288,121.612939,0,0,0,0,0,0,0,0,0,0,0,0,0,00000000
0C9A4249DB60,2020-04-09,03:09:00,28.1,52.7,181,343,392,515,0,2,1,49,39,24,25,1,1,50,0.0,0.0,25.039288,121.612939,0,0,0,0,0,0,0,0,0,0,0,0,0,00000000
0C9A4249DB60,2020-04-09,03:09:15,28.1,52.8,181,341,392,515,0,1,1,50,37,30,40,2,1,50,0.0,0.0,25.039288,121.612939,0,0,0,0,0,0,0,0,0,0,0,0,0,00000000
0C9A4249DB60,2020-04-09,03:09:30,28.1,52.7,183,351,401,515,0,2,1,50,52,31,27,2,0,49,0.0,0.0,25.039288,121.612939,0,0,0,0,0,0,0,0,0,0,0,0,0,00000000
0C9A4249DB60,2020-04-09,03:09:45,28.1,52.7,183,349,405,515,0,2,0,49,32,21,33,2,1,50,0.0,0.0,25.039288,121.612939,0,0,0,0,0,0,0,0,0,0,0,0,0,00000000
0C9A4249DB60,2020-04-09,03:10:00,28.1,52.7,183,349,407,516,0,2,1,50,36,38,32,2,1,50,0.0,0.0,25.039288,121.612939,0,0,0,0,0,0,0,0,0,0,0,0,0,00000000
0C9A4249DB60,2020-04-09,03:10:15,28.1,52.7,184,346,407,515,0,2,1,50,36,29,43,2,2,49,0.0,0.0,25.039288,121.612939,0,0,0,0,0,0,0,0,0,0,0,0,0,00000000
0C9A4249DB60,2020-04-09,03:10:30,28.1,52.7,184,344,403,514,0,2,2,49,36,25,37,2,1,50,0.0,0.0,25.039288,121.612939,0,0,0,0,0,0,0,0,0,0,0,0,0,00000000
0C9A4249DB60,2020-04-09,03:10:45,28.1,52.7,184,343,402,515,0,2,1,50,29,20,30,1,1,50,0.0,0.0,25.039288,121.612939,0,0,0,0,0,0,0,0,0,0,0,0,0,00000000
0C9A4249DB60,2020-04-09,03:11:00,28.1,52.7,184,343,397,514,0,1,1,50,35,18,22,2,1,50,0.0,0.0,25.039288,121.612939,0,0,0,0,0,0,0,0,0,0,0,0,0,00000000
0C9A4249DB60,2020-04-09,03:11:15,28.1,52.7,182,341,399,515,0,2,1,50,36,20,23,2,1,49,0.0,0.0,25.039288,121.612939,0,0,0,0,0,0,0,0,0,0,0,0,0,00000000
0C9A4249DB60,2020-04-09,03:11:30,28.1,52.7,183,341,398,515,0,2,1,49,48,20,37,2,1,50,0.0,0.0,25.039288,121.612939,0,0,0,0,0,0,0,0,0,0,0,0,0,00000000
0C9A4249DB60,2020-04-09,03:11:45,28.1,52.7,182,341,389,516,0,2,1,50,38,22,28,2,1,50,0.0,0.0,25.039288,121.612939,0,0,0,0,0,0,0,0,0,0,0,0,0,00000000
0C9A4249DB60,2020-04-09,03:12:00,28.1,52.7,181,342,392,516,0,2,1,50,34,17,38,2,0,50,0.0,0.0,25.039288,121.612939,0,0,0,0,0,0,0,0,0,0,0,0,0,00000000
0C9A4249DB60,2020-04-09,03:12:15,28.1,52.7,181,343,390,515,0,2,0,50,42,15,34,2,1,50,0.0,0.0,25.039288,121.612939,0,0,0,0,0,0,0,0,0,0,0,0,0,00000000
0C9A4249DB60,2020-04-09,03:12:30,28.1,52.7,183,346,391,515,0,2,1,50,44,22,38,2,1,50,0.0,0.0,25.039288,121.612939,0,0,0,0,0,0,0,0,0,0,0,0,0,00000000
0C9A4249DB60,2020-04-09,03:12:45,28.1,52.8,182,344,395,515,0,2,1,50,36,34,36,2,1,50,0.0,0.0,25.039288,121.612939,0,0,0,0,0,0,0,0,0,0,0,0,0,00000000
0C9A4249DB60,2020-04-09,03:13:00,28.1,52.7,181,341,396,516,0,2,1,50,42,18,38,2,1,50,0.0,0.0,25.039288,121.612939,0,0,0,0,0,0,0,0,0,0,0,0,0,00000000
0C9A4249DB60,2020-04-09,03:13:15,28.1,52.7,182,345,404,516,0,2,1,50,34,20,36,2,1,50,0.0,0.0,25.039288,121.612939,0,0,0,0,0,0,0,0,0,0,0,0,0,00000000
0C9A4249DB60,2020-04-09,03:13:30,28.1,52.7,182,343,401,516,0,2,1,50,42,28,40,2,1,50,0.0,0.0,25.039288,121.612939,0,0,0,0,0,0,0,0,0,0,0,0,0,00000000
0C9A4249DB60,2020-04-09,03:13:45,28.1,52.8,186,344,400,516,0,2,1,50,36,18,20,2,1,50,0.0,0.0,25.039288,121.612939,0,0,0,0,0,0,0,0,0,0,0,0,0,00000000
0C9A4249DB60,2020-04-09,03:14:00,28.1,52.7,185,345,397,516,0,2,1,50,32,14,30,2,1,50,0.0,0.0,25.039288,121.612939,0,0,0,0,0,0,0,0,0,0,0,0,0,00000000
0C9A4249DB60,2020-04-09,03:14:15,28.1,52.7,183,344,397,516,0,2,1,50,44,28,44,2,1,50,0.0,0.0,25.039288,121.612939,0,0,0,0,0,0,0,0,0,0,0,0,0,00000000
0C9A4249DB60,2020-04-09,03:14:30,28.1,52.7,182,341,393,516,0,2,1,50,40,24,40,2,1,50,0.0,0.0,25.039288,121.612939,0,0,0,0,0,0,0,0,0,0,0,0,0,00000000
0C9A4249DB60,2020-04-09,03:14:45,28.1,52.7,181,339,395,516,0,2,1,50,40,22,38,2,1,50,0.0,0.0,25.039288,121.612939,0,0,0,0,0,0,0,0,0,0,0,0,0,00000000
0C9A4249DB60,2020-04-09,03:15:00,28.1,52.7,182,341,396,516,0,2,1,50,38,20,40,2,1,50,0.0,0.0,25.039288,121.612939,0,0,0,0,0,0,0,0,0,0,0,0,0,00000000
0C9A4249DB60,2020-04-09,03:15:15,28.1,52.7,183,341,399,516,0,2,1,50,42,28,44,2,1,50,0.0,0.0,25.039288,121.612939,0,0,0,0,0,0,0,0,0,0,0,0,0,00000000
0C9A4249DB60,2020-04-09,03:15:30,28.1,52.8,183,338,392,516,0,2,1,50,42,12,26,2,1,50,0.0,0.0,25.039288,121.612939,0,0,0,0,0,0,0,0,0,0,0,0,0,00000000
0C9A4249DB60,2020-04-09,03:15:45,28.1,52.7,183,343,391,515,0,2,1,50,40,24,40,2,1,50,0.0,0.0,25.039288,121.612939,0,0,0,0,0,0,0,0,0,0,0,0,0,00000000
0C9A4249DB60,2020-04-09,03:16:00,28.1,52.8,182,340,388,515,0,2,1,50,46,16,48,2,1,50,0.0,0.0,25.039288,121.612939,0,0,0,0,0,0,0,0,0,0,0,0,0,00000000
0C9A4249DB60,2020-04-09,03:16:15,28.1,52.7,181,341,388,515,0,2,1,50,28,18,32,2,1,50,0.0,0.0,25.039288,121.612939,0,0,0,0,0,0,0,0,0,0,0,0,0,00000000
0C9A4249DB60,2020-04-09,03:16:30,28.1,52.7,182,335,392,515,0,2,1,50,60,32,38,2,1,50,0.0,0.0,25.039288,121.612939,0,0,0,0,0,0,0,0,0,0,0,0,0,00000000
0C9A4249DB60,2020-04-09,03:16:45,28.1,52.7,181,335,397,515,0,2,1,50,34,21,30,2,0,50,0.0,0.0,25.039288,121.612939,0,0,0,0,0,0,0,0,0,0,0,0,0,00000000
0C9A4249DB60,2020-04-09,03:17:00,28.1,52.7,181,338,398,515,0,2,0,50,44,31,42,2,1,50,0.0,0.0,25.039288,121.612939,0,0,0,0,0,0,0,0,0,0,0,0,0,00000000
0C9A4249DB60,2020-04-09,03:17:15,28.1,52.8,181,340,397,515,0,2,1,50,43,8,34,1,1,50,0.0,0.0,25.039288,121.612939,0,0,0,0,0,0,0,0,0,0,0,0,0,00000000
0C9A4249DB60,2020-04-09,03:17:30,28.1,52.7,181,339,395,515,0,1,1,50,35,18,28,2,1,50,0.0,0.0,25.039288,121.612939,0,0,0,0,0,0,0,0,0,0,0,0,0,00000000
0C9A4249DB60,2020-04-09,03:17:45,28.1,52.8,181,337,391,514,0,2,1,50,34,18,38,2,1,50,0.0,0.0,25.039288,121.612939,0,0,0,0,0,0,0,0,0,0,0,0,0,00000000
0C9A4249DB60,2020-04-09,03:18:00,28.1,52.8,181,339,387,514,0,2,1,50,30,26,36,2,1,50,0.0,0.0,25.039288,121.612939,0,0,0,0,0,0,0,0,0,0,0,0,0,00000000
0C9A4249DB60,2020-04-09,03:18:15,28.1,52.7,180,338,388,514,0,2,1,50,32,24,28,2,1,50,0.0,0.0,25.039288,121.612939,0,0,0,0,0,0,0,0,0,0,0,0,0,00000000
0C9A4249DB60,2020-04-09,03:18:30,28.1,52.8,182,343,391,514,0,2,1,50,28,22,38,2,1,50,0.0,0.0,25.039288,121.612939,0,0,0,0,0,0,0,0,0,0,0,0,0,00000000
0C9A4249DB60,2020-04-09,03:18:45,28.1,52.7,182,340,390,514,0,2,1,50,36,18,32,2,1,50,0.0,0.0,25.039288,121.612939,0,0,0,0,0,0,0,0,0,0,0,0,0,00000000
0C9A4249DB60,2020-04-09,03:19:00,28.1,52.8,181,335,388,515,0,2,1,50,42,24,46,2,1,50,0.0,0.0,25.039288,121.612939,0,0,0,0,0,0,0,0,0,0,0,0,0,00000000
0C9A4249DB60,2020-04-09,03:19:15,28.1,52.8,179,336,389,515,0,2,1,50,36,20,26,2,1,50,0.0,0.0,25.039288,121.612939,0,0,0,0,0,0,0,0,0,0,0,0,0,00000000
0C9A4249DB60,2020-04-09,03:19:30,28.1,52.8,181,339,384,515,0,2,1,50,32,27,30,2,0,50,0.0,0.0,25.039288,121.612939,0,0,0,0,0,0,0,0,0,0,0,0,0,00000000
0C9A4249DB60,2020-04-09,03:19:45,28.1,52.7,181,339,384,516,0,2,0,50,30,15,40,2,1,50,0.0,0.0,25.039288,121.612939,0,0,0,0,0,0,0,0,0,0,0,0,0,00000000
0C9A4249DB60,2020-04-09,03:20:00,28.1,52.7,179,340,390,517,0,2,1,50,30,20,36,2,1,50,0.0,0.0,25.039288,121.612939,0,0,0,0,0,0,0,0,0,0,0,0,0,00000000
0C9A4249DB60,2020-04-09,03:20:15,28.1,52.8,180,345,396,517,0,2,1,50,34,18,38,2,1,50,0.0,0.0,25.039288,121.612939,0,0,0,0,0,0,0,0,0,0,0,0,0,00000000
0C9A4249DB60,2020-04-09,03:20:30,28.1,52.7,180,344,391,518,0,2,1,50,34,14,30,2,1,50,0.0,0.0,25.039288,121.612939,0,0,0,0,0,0,0,0,0,0,0,0,0,00000000
