id,date,time,sht_t,sht_h,pm1,pm25,pm10,co2,adc,acc_x,acc_y,acc_z,accx_int,accy_int,accz_int,accx_i,accy_i,accz_i,sht_t_ext,sht_h_ext,gps_lat,gps_lon,gps_alt,gps_speed,gps_dir,gps_fix,pressure,ai1_1,ai1_2,ai1_3,ai1_4,ai2_1,ai2_2,ai2_3,ai2_4,ERR
0C9A4249DB83,2020-04-09,00:00:00,28.3,51.2,245,575,643,526,0,3,1,65,71,52,60,2,1,65,0.0,0.0,25.039288,121.612939,0,0,0,0,0,0,0,0,0,0,0,0,0,00000000
0C9A4249DB83,2020-04-09,00:00:15,28.3,51.2,247,569,632,527,0,2,1,65,63,44,80,3,1,65,0.0,0.0,25.039288,121.612939,0,0,0,0,0,0,0,0,0,0,0,0,0,00000000
0C9A4249DB83,2020-04-09,00:00:30,28.3,51.3,245,571,628,525,0,3,1,65,79,53,66,2,2,65,0.0,0.0,25.039288,121.612939,0,0,0,0,0,0,0,0,0,0,0,0,0,00000000
0C9A4249DB83,2020-04-09,00:00:45,28.3,51.2,246,571,634,526,0,2,2,65,62,53,74,2,1,65,0.0,0.0,25.039288,121.612939,0,0,0,0,0,0,0,0,0,0,0,0,0,00000000
0C9A4249DB83,2020-04-09,00:01:00,28.3,51.2,246,569,641,526,0,2,1,65,61,62,68,3,1,65,0.0,0.0,25.039288,121.612939,0,0,0,0,0,0,0,0,0,0,0,0,0,00000000
0C9A4249DB83,2020-04-09,00:01:15,28.3,51.2,245,567,645,524,0,3,1,65,74,48,54,3,1,65,0.0,0.0,25.039288,121.612939,0,0,0,0,0,0,0,0,0,0,0,0,0,00000000
0C9A4249DB83,2020-04-09,00:01:30,28.3,51.2,248,569,654,524,0,3,1,65,74,45,51,3,2,64,0.0,0.0,25.039288,121.612939,0,0,0,0,0,0,0,0,0,0,0,0,0,00000000
0C9A4249DB83,2020-04-09,00:01:45,28.3,51.2,244,563,644,524,0,3,2,64,75,54,51,2,2,65,0.0,0.0,25.039288,121.612939,0,0,0,0,0,0,0,0,0,0,0,0,0,00000000
0C9A4249DB83,2020-04-09,00:02:00,28.3,51.2,244,571,651,526,0,2,2,65,59,45,67,3,1,64,0.0,0.0,25.039288,121.612939,0,0,0,0,0,0,0,0,0,0,0,0,0,00000000
0C9A4249DB83,2020-04-09,00:02:15,28.3,51.2,245,565,651,528,0,3,1,64,67,51,75,2,2,65,0.0,0.0,25.039288,121.612939,0,0,0,0,0,0,0,0,0,0,0,0,0,00000000
0C9A4249DB83,2020-04-09,00:02:30,28.3,51.2,245,559,647,528,0,2,2,65,80,52,84,2,2,65,0.0,0.0,25.039288,121.612939,0,0,0,0,0,0,0,0,0,0,0,0,0,00000000
0C9A4249DB83,2020-04-09,00:02:45,28.3,51.3,242,561,643,528,0,2,2,65,57,39,74,3,1,65,0.0,0.0,25.039288,121.612939,0,0,0,0,0,0,0,0,0,0,0,0,0,00000000
0C9A4249DB83,2020-04-09,00:03:00,28.3,51.2,243,560,643,528,0,3,1,65,73,54,65,2,1,64,0.0,0.0,25.039288,121.612939,0,0,0,0,0,0,0,0,0,0,0,0,0,00000000
0C9A4249DB83,2020-04-09,00:03:15,28.3,51.2,247,563,631,527,0,2,1,64,61,43,73,3,2,65,0.0,0.0,25.039288,121.612939,0,0,0,0,0,0,0,0,0,0,0,0,0,00000000
0C9A4249DB83,2020-04-09,00:03:30,28.3,51.2,249,564,632,527,0,3,2,65,78,43,61,3,1,64,0.0,0.0,25.039288,121.612939,0,0,0,0,0,0,0,0,0,0,0,0,0,00000000
0C9A4249DB83,2020-04-09,00:03:45,28.3,51.2,248,569,629,527,0,3,1,64,80,46,65,3,1,65,0.0,0.0,25.039288,121.612939,0,0,0,0,0,0,0,0,0,0,0,0,0,00000000
0C9A4249DB83,2020-04-09,00:04:00,28.3,51.2,249,569,637,526,0,3,1,65,82,50,79,3,1,64,0.0,0.0,25.039288,121.612939,0,0,0,0,0,0,0,0,0,0,0,0,0,00000000
0C9A4249DB83,2020-04-09,00:04:15,28.3,51.2,247,570,637,527,0,3,1,64,65,57,63,2,2,65,0.0,0.0,25.039288,121.612939,0,0,0,0,0,0,0,0,0,0,0,0,0,00000000
0C9A4249DB83,2020-04-09,00:04:30,28.3,51.2,247,569,641,527,0,2,2,65,74,59,70,2,1,65,0.0,0.0,25.039288,121.612939,0,0,0,0,0,0,0,0,0,0,0,0,0,00000000
0C9A4249DB83,2020-04-09,00:04:45,28.3,51.2,244,568,639,527,0,2,1,65,66,47,65,2,2,64,0.0,0.0,25.039288,121.612939,0,0,0,0,0,0,0,0,0,0,0,0,0,00000000
0C9A4249DB83,2020-04-09,00:05:00,28.3,51.2,245,560,637,527,0,2,2,64,74,58,73,2,2,65,0.0,0.0,25.039288,121.612939,0,0,0,0,0,0,0,0,0,0,0,0,0,00000000
0C9A4249DB83,2020-04-09,00:05:15,28.3,51.2,245,559,633,527,0,2,2,65,74,51,73,2,1,64,0.0,0.0,25.039288,121.612939,0,0,0,0,0,0,0,0,0,0,0,0,0,00000000
0C9A4249DB83,2020-04-09,00:05:30,28.3,51.2,245,555,631,527,0,2,1,64,81,60,76,3,1,64,0.0,0.0,25.039288,121.612939,0,0,0,0,0,0,0,0,0,0,0,0,0,00000000
0C9A4249DB83,2020-04-09,00:05:45,28.3,51.2,246,558,635,527,0,3,1,64,69,46,69,2,1,65,0.0,0.0,25.039288,121.612939,0,0,0,0,0,0,0,0,0,0,0,0,0,00000000
0C9A4249DB83,2020-04-09,00:06:00,28.3,51.2,247,563,636,528,0,2,1,65,80,55,75,2,2,64,0.0,0.0,25.039288,121.612939,0,0,0,0,0,0,0,0,0,0,0,0,0,00000000
0C9A4249DB83,2020-04-09,00:06:15,28.3,51.2,249,565,634,527,0,2,2,64,80,51,78,4,1,64,0.0,0.0,25.039288,121.612939,0,0,0,0,0,0,0,0,0,0,0,0,0,00000000
0C9A4249DB83,2020-04-09,00:06:30,28.3,51.2,247,565,628,527,0,4,1,64,68,41,70,2,2,64,0.0,0.0,25.039288,121.612939,0,0,0,0,0,0,0,0,0,0,0,0,0,00000000
0C9A4249DB83,2020-04-09,00:06:45,28.3,51.2,247,559,632,526,0,2,2,64,87,48,58,3,2,64,0.0,0.0,25.039288,121.612939,0,0,0,0,0,0,0,0,0,0,0,0,0,00000000
0C9A4249DB83,2020-04-09,00:07:00,28.3,51.2,242,554,629,526,0,3,2,64,61,46,57,2,2,65,0.0,0.0,25.039288,121.612939,0,0,0,0,0,0,0,0,0,0,0,0,0,00000000
0C9A4249DB83,2020-04-09,00:07:15,28.3,51.2,241,558,645,527,0,2,2,65,80,53,67,2,1,64,0.0,0.0,25.039288,121.612939,0,0,0,0,0,0,0,0,0,0,0,0,0,00000000
0C9A4249DB83,2020-04-09,00:07:30,28.3,51.3,240,559,644,526,0,2,1,64,70,53,59,2,2,65,0.0,0.0,25.039288,121.612939,0,0,0,0,0,0,0,0,0,0,0,0,0,00000000
0C9A4249DB83,2020-04-09,00:07:45,28.3,51.2,243,566,645,526,0,2,2,65,72,57,58,2,1,65,0.0,0.0,25.039288,121.612939,0,0,0,0,0,0,0,0,0,0,0,0,0,00000000
0C9A4249DB83,2020-04-09,00:08:00,28.3,51.2,241,563,635,526,0,2,1,65,71,38,55,3,1,64,0.0,0.0,25.039288,121.612939,0,0,0,0,0,0,0,0,0,0,0,0,0,00000000
0C9A4249DB83,2020-04-09,00:08:15,28.3,51.2,243,560,626,526,0,3,1,64,74,50,66,3,1,64,0.0,0.0,25.039288,121.612939,0,0,0,0,0,0,0,0,0,0,0,0,0,00000000
0C9A4249DB83,2020-04-09,00:08:30,28.3,51.2,245,557,624,526,0,3,1,64,56,58,73,3,1,65,0.0,0.0,25.039288,121.612939,0,0,0,0,0,0,0,0,0,0,0,0,0,00000000
0C9A4249DB83,2020-04-09,00:08:45,28.3,51.2,244,565,631,526,0,3,1,65,60,38,62,3,1,65,0.0,0.0,25.039288,121.612939,0,0,0,0,0,0,0,0,0,0,0,0,0,00000000
0C9A4249DB83,2020-04-09,00:09:00,28.3,51.2,244,563,627,526,0,3,1,65,57,48,83,2,1,64,0.0,0.0,25.039288,121.612939,0,0,0,0,0,0,0,0,0,0,0,0,0,00000000
0C9A4249DB83,2020-04-09,00:09:15,28.3,51.2,246,571,633,526,0,2,1,64,76,58,67,2,1,65,0.0,0.0,25.039288,121.612939,0,0,0,0,0,0,0,0,0,0,0,0,0,00000000
0C9A4249DB83,2020-04-09,00:09:30,28.3,51.2,246,559,623,527,0,2,1,65,75,50,64,3,1,65,0.0,0.0,25.039288,121.612939,0,0,0,0,0,0,0,0,0,0,0,0,0,00000000
0C9A4249DB83,2020-04-09,00:09:45,28.3,51.2,245,560,623,526,0,3,1,65,84,51,79,3,2,64,0.0,0.0,25.039288,121.612939,0,0,0,0,0,0,0,0,0,0,0,0,0,00000000
0C9A4249DB83,2020-04-09,00:10:00,28.3,51.2,247,558,632,526,0,3,2,64,86,64,59,1,2,65,0.0,0.0,25.039288,121.612939,0,0,0,0,0,0,0,0,0,0,0,0,0,00000000
0C9A4249DB83,2020-04-09,00:10:15,28.3,51.2,247,556,625,526,0,1,2,65,84,49,74,3,1,65,0.0,0.0,25.039288,121.612939,0,0,0,0,0,0,0,0,0,0,0,0,0,00000000
0C9A4249DB83,2020-04-09,00:10:30,28.3,51.2,245,557,635,526,0,3,1,65,77,50,80,2,1,65,0.0,0.0,25.039288,121.612939,0,0,0,0,0,0,0,0,0,0,0,0,0,00000000
0C9A4249DB83,2020-04-09,00:10:45,28.3,51.3,246,557,627,526,0,2,1,65,62,40,70,2,1,65,0.0,0.0,25.039288,121.612939,0,0,0,0,0,0,0,0,0,0,0,0,0,00000000
0C9A4249DB83,2020-04-09,00:11:00,28.3,51.3,245,563,635,526,0,2,1,65,64,30,59,2,1,64,0.0,0.0,25.039288,121.612939,0,0,0,0,0,0,0,0,0,0,0,0,0,00000000
0C9A4249DB83,2020-04-09,00:11:15,28.3,51.2,244,557,620,527,0,2,1,64,70,43,61,2,2,65,0.0,0.0,25.039288,121.612939,0,0,0,0,0,0,0,0,0,0,0,0,0,00000000
0C9A4249DB83,2020-04-09,00:11:30,28.3,51.2,241,552,620,526,0,2,2,65,75,60,68,3,2,65,0.0,0.0,25.039288,121.612939,0,0,0,0,0,0,0,0,0,0,0,0,0,00000000
0C9A4249DB83,2020-04-09,00:11:45,28.3,51.2,243,552,624,526,0,3,2,65,56,37,58,3,1,65,0.0,0.0,25.039288,121.612939,0,0,0,0,0,0,0,0,0,0,0,0,0,00000000
0C9A4249DB83,2020-04-09,00:12:00,28.3,51.2,242,557,633,526,0,3,1,65,72,44,72,3,1,65,0.0,0.0,25.039288,121.612939,0,0,0,0,0,0,0,0,0,0,0,0,0,00000000
0C9A4249DB83,2020-04-09,00:12:15,28.3,51.3,245,556,629,526,0,3,1,65,69,56,75,2,1,64,0.0,0.0,25.039288,121.612939,0,0,0,0,0,0,0,0,0,0,0,0,0,00000000
0C9A4249DB83,2020-04-09,00:12:30,28.3,51.3,243,557,629,526,0,2,1,64,79,48,69,3,1,65,0.0,0.0,25.039288,121.612939,0,0,0,0,0,0,0,0,0,0,0,0,0,00000000
0C9A4249DB83,2020-04-09,00:12:45,28.3,51.2,243,557,635,527,0,3,1,65,64,56,70,3,1,65,0.0,0.0,25.039288,121.612939,0,0,0,0,0,0,0,0,0,0,0,0,0,00000000
0C9A4249DB83,2020-04-09,00:13:00,28.3,51.2,239,556,633,527,0,3,1,65,80,54,62,3,1,65,0.0,0.0,25.039288,121.612939,0,0,0,0,0,0,0,0,0,0,0,0,0,00000000
0C9A4249DB83,2020-04-09,00:13:15,28.3,51.3,242,555,622,527,0,3,1,65,93,60,76,2,1,65,0.0,0.0,25.039288,121.612939,0,0,0,0,0,0,0,0,0,0,0,0,0,00000000
0C9A4249DB83,2020-04-09,00:13:30,28.3,51.3,245,556,621,527,0,2,1,65,77,48,58,3,1,65,0.0,0.0,25.039288,121.612939,0,0,0,0,0,0,0,0,0,0,0,0,0,00000000
0C9A4249DB83,2020-04-09,00:13:45,28.3,51.3,240,541,617,526,0,3,1,65,78,69,67,3,2,64,0.0,0.0,25.039288,121.612939,0,0,0,0,0,0,0,0,0,0,0,0,0,00000000
0C9A4249DB83,2020-04-09,00:14:00,28.3,51.3,241,549,629,526,0,3,2,64,77,36,70,2,2,64,0.0,0.0,25.039288,121.612939,0,0,0,0,0,0,0,0,0,0,0,0,0,00000000
0C9A4249DB83,2020-04-09,00:14:15,28.3,51.3,238,546,627,526,0,2,2,64,81,59,59,3,1,65,0.0,0.0,25.039288,121.612939,0,0,0,0,0,0,0,0,0,0,0,0,0,00000000
0C9A4249DB83,2020-04-09,00:14:30,28.3,51.3,236,536,605,526,0,3,1,65,71,38,58,2,1,65,0.0,0.0,25.039288,121.612939,0,0,0,0,0,0,0,0,0,0,0,0,0,00000000
0C9A4249DB83,2020-04-09,00:14:45,28.3,51.2,242,552,621,526,0,2,1,65,63,48,79,3,1,64,0.0,0.0,25.039288,121.612939,0,0,0,0,0,0,0,0,0,0,0,0,0,00000000
0C9A4249DB83,2020-04-09,00:15:00,28.3,51.3,241,551,626,526,0,3,1,64,70,43,59,3,2,65,0.0,0.0,25.039288,121.612939,0,0,0,0,0,0,0,0,0,0,0,0,0,00000000
0C9A4249DB83,2020-04-09,00:15:15,28.3,51.3,240,551,622,526,0,3,2,65,80,61,73,3,1,64,0.0,0.0,25.039288,121.612939,0,0,0,0,0,0,0,0,0,0,0,0,0,00000000
0C9A4249DB83,2020-04-09,00:15:30,28.3,51.2,242,551,624,526,0,3,1,64,71,50,65,2,1,65,0.0,0.0,25.039288,121.612939,0,0,0,0,0,0,0,0,0,0,0,0,0,00000000
0C9A4249DB83,2020-04-09,00:15:45,28.3,51.2,242,548,625,527,0,2,1,65,74,40,62,2,1,65,0.0,0.0,25.039288,121.612939,0,0,0,0,0,0,0,0,0,0,0,0,0,00000000
0C9A4249DB83,2020-04-09,00:16:00,28.3,51.3,239,548,630,527,0,2,1,65,71,48,52,3,1,65,0.0,0.0,25.039288,121.612939,0,0,0,0,0,0,0,0,0,0,0,0,0,00000000
0C9A4249DB83,2020-04-09,00:16:15,28.3,51.3,239,552,628,527,0,3,1,65,81,66,64,2,3,65,0.0,0.0,25.039288,121.612939,0,0,0,0,0,0,0,0,0,0,0,0,0,00000000
0C9A4249DB83,2020-04-09,00:16:30,28.3,51.3,239,547,620,526,0,2,3,65,84,41,68,2,2,65,0.0,0.0,25.039288,121.612939,0,0,0,0,0,0,0,0,0,0,0,0,0,00000000
0C9A4249DB83,2020-04-09,00:16:45,28.3,51.3,241,545,617,525,0,2,2,65,70,55,62,2,1,65,0.0,0.0,25.039288,121.612939,0,0,0,0,0,0,0,0,0,0,0,0,0,00000000
0C9A4249DB83,2020-04-09,00:17:00,28.3,51.3,243,546,616,525,0,2,1,65,73,44,67,3,1,64,0.0,0.0,25.039288,121.612939,0,0,0,0,0,0,0,0,0,0,0,0,0,00000000
0C9A4249DB83,2020-04-09,00:17:15,28.3,51.3,243,545,617,525,0,3,1,64,82,50,71,3,1,65,0.0,0.0,25.039288,121.612939,0,0,0,0,0,0,0,0,0,0,0,0,0,00000000
0C9A4249DB83,2020-04-09,00:17:30,28.3,51.2,243,546,614,525,0,3,1,65,74,47,73,3,0,66,0.0,0.0,25.039288,121.612939,0,0,0,0,0,0,0,0,0,0,0,0,0,00000000
0C9A4249DB83,2020-04-09,00:17:45,28.3,51.3,242,546,617,524,0,3,0,66,65,54,58,2,2,64,0.0,0.0,25.039288,121.612939,0,0,0,0,0,0,0,0,0,0,0,0,0,00000000
0C9A4249DB83,2020-04-09,00:18:00,28.3,51.3,240,551,617,524,0,2,2,64,69,55,69,3,1,65,0.0,0.0,25.039288,121.612939,0,0,0,0,0,0,0,0,0,0,0,0,0,00000000
0C9A4249DB83,2020-04-09,00:18:15,28.3,51.3,239,555,619,524,0,3,1,65,78,36,62,3,1,65,0.0,0.0,25.039288,121.612939,0,0,0,0,0,0,0,0,0,0,0,0,0,00000000
0C9A4249DB83,2020-04-09,00:18:30,28.3,51.3,241,555,612,524,0,3,1,65,77,51,65,2,2,64,0.0,0.0,25.039288,121.612939,0,0,0,0,0,0,0,0,0,0,0,0,0,00000000
0C9A4249DB83,2020-04-09,00:18:45,28.3,51.2,244,550,608,524,0,2,2,64,75,59,71,3,1,65,0.0,0.0,25.039288,121.612939,0,0,0,0,0,0,0,0,0,0,0,0,0,00000000
0C9A4249DB83,2020-04-09,00:19:00,28.3,51.3,245,549,611,524,0,3,1,65,72,50,72,3,1,65,0.0,0.0,25.039288,121.612939,0,0,0,0,0,0,0,0,0,0,0,0,0,00000000
0C9A4249DB83,2020-04-09,00:19:15,28.3,51.3,241,548,621,524,0,3,1,65,79,41,64,2,2,65,0.0,0.0,25.039288,121.612939,0,0,0,0,0,0,0,0,0,0,0,0,0,00000000
0C9A4249DB83,2020-04-09,00:19:30,28.3,51.3,241,551,625,523,0,2,2,65,83,50,76,3,2,65,0.0,0.0,25.039288,121.612939,0,0,0,0,0,0,0,0,0,0,0,0,0,00000000
0C9A4249DB83,2020-04-09,00:19:45,28.3,51.3,239,550,629,523,0,3,2,65,75,47,80,2,1,65,0.0,0.0,25.039288,121.612939,0,0,0,0,0,0,0,0,0,0,0,0,0,00000000
0C9A4249DB83,2020-04-09,00:20:00,28.3,51.3,242,553,629,524,0,2,1,65,80,44,70,2,1,65,0.0,0.0,25.039288,121.612939,0,0,0,0,0,0,0,0,0,0,0,0,0,00000000
0C9A4249DB83,2020-04-09,00:20:15,28.3,51.3,242,553,625,524,0,2,1,65,70,48,57,4,1,64,0.0,0.0,25.039288,121.612939,0,0,0,0,0,0,0,0,0,0,0,0,0,00000000
0C9A4249DB83,2020-04-09,00:20:30,28.3,51.3,242,548,608,525,0,4,1,64,77,54,74,3,1,64,0.0,0.0,25.039288,121.612939,0,0,0,0,0,0,0,0,0,0,0,0,0,00000000
0C9A4249DB83,2020-04-09,00:20:45,28.3,51.3,242,543,600,526,0,3,1,64,68,54,63,3,1,65,0.0,0.0,25.039288,121.612939,0,0,0,0,0,0,0,0,0,0,0,0,0,00000000
0C9A4249DB83,2020-04-09,00:21:00,28.3,51.3,244,542,603,525,0,3,1,65,63,41,75,2,2,64,0.0,0.0,25.039288,121.612939,0,0,0,0,0,0,0,0,0,0,0,0,0,00000000
0C9A4249DB83,2020-04-09,00:21:15,28.3,51.3,243,543,608,525,0,2,2,64,65,55,68,3,1,64,0.0,0.0,25.039288,121.612939,0,0,0,0,0,0,0,0,0,0,0,0,0,00000000
0C9A4249DB83,2020-04-09,00:21:30,28.3,51.3,243,545,614,525,0,3,1,64,89,62,65,2,1,65,0.0,0.0,25.039288,121.612939,0,0,0,0,0,0,0,0,0,0,0,0,0,00000000
0C9A4249DB83,2020-04-09,00:21:45,28.3,51.3,244,555,630,525,0,2,1,65,63,58,73,3,1,64,0.0,0.0,25.039288,121.612939,0,0,0,0,0,0,0,0,0,0,0,0,0,00000000
0C9A4249DB83,2020-04-09,00:22:00,28.3,51.3,239,543,619,525,0,3,1,64,77,52,64,2,1,64,0.0,0.0,25.039288,121.612939,0,0,0,0,0,0,0,0,0,0,0,0,0,00000000
0C9A4249DB83,2020-04-09,00:22:15,28.3,51.3,237,537,616,525,0,2,1,64,73,54,70,3,1,64,0.0,0.0,25.039288,121.612939,0,0,0,0,0,0,0,0,0,0,0,0,0,00000000
0C9A4249DB83,2020-04-09,00:22:30,28.3,51.3,242,537,609,524,0,3,1,64,65,60,61,2,1,65,0.0,0.0,25.039288,121.612939,0,0,0,0,0,0,0,0,0,0,0,0,0,00000000
0C9A4249DB83,2020-04-09,00:22:45,28.3,51.3,241,541,607,525,0,2,1,65,61,58,74,3,1,65,0.0,0.0,25.039288,121.612939,0,0,0,0,0,0,0,0,0,0,0,0,0,00000000
0C9A4249DB83,2020-04-09,00:23:00,28.3,51.3,244,545,611,525,0,3,1,65,76,49,73,1,2,64,0.0,0.0,25.039288,121.612939,0,0,0,0,0,0,0,0,0,0,0,0,0,00000000
0C9A4249DB83,2020-04-09,00:23:15,28.3,51.3,243,545,612,525,0,1,2,64,82,51,79,3,1,65,0.0,0.0,25.039288,121.612939,0,0,0,0,0,0,0,0,0,0,0,0,0,00000000
0C9A4249DB83,2020-04-09,00:23:30,28.3,51.3,244,541,609,526,0,3,1,65,82,52,53,3,1,64,0.0,0.0,25.039288,121.612939,0,0,0,0,0,0,0,0,0,0,0,0,0,00000000
0C9A4249DB83,2020-04-09,00:23:45,28.3,51.3,243,540,602,527,0,3,1,64,60,50,51,3,1,65,0.0,0.0,25.039288,121.612939,0,0,0,0,0,0,0,0,0,0,0,0,0,00000000
0C9A4249DB83,2020-04-09,00:24:00,28.3,51.3,242,543,608,527,0,3,1,65,75,68,55,2,1,64,0.0,0.0,25.039288,121.612939,0,0,0,0,0,0,0,0,0,0,0,0,0,00000000
0C9A4249DB83,2020-04-09,00:24:15,28.3,51.3,243,543,609,526,0,2,1,64,77,46,66,3,1,64,0.0,0.0,25.039288,121.612939,0,0,0,0,0,0,0,0,0,0,0,0,0,00000000
0C9A4249DB83,2020-04-09,00:24:30,28.3,51.3,243,542,610,527,0,3,1,64,66,50,72,3,1,64,0.0,0.0,25.039288,121.612939,0,0,0,0,0,0,0,0,0,0,0,0,0,00000000
0C9A4249DB83,2020-04-09,00:24:45,28.3,51.3,241,535,604,527,0,3,1,64,86,72,73,3,1,65,0.0,0.0,25.039288,121.612939,0,0,0,0,0,0,0,0,0,0,0,0,0,00000000
0C9A4249DB83,2020-04-09,00:25:00,28.3,51.3,239,538,604,526,0,3,1,65,67,44,65,2,1,64,0.0,0.0,25.039288,121.612939,0,0,0,0,0,0,0,0,0,0,0,0,0,00000000
0C9A4249DB83,2020-04-09,00:25:15,28.3,51.3,239,544,608,526,0,2,1,64,58,59,55,2,2,65,0.0,0.0,25.039288,121.612939,0,0,0,0,0,0,0,0,0,0,0,0,0,00000000
0C9A4249DB83,2020-04-09,00:25:30,28.3,51.3,239,552,613,527,0,2,2,65,72,47,68,2,1,65,0.0,0.0,25.039288,121.612939,0,0,0,0,0,0,0,0,0,0,0,0,0,00000000
0C9A4249DB83,2020-04-09,00:25:45,28.3,51.3,242,537,599,527,0,2,1,65,75,44,72,3,1,65,0.0,0.0,25.039288,121.612939,0,0,0,0,0,0,0,0,0,0,0,0,0,00000000
0C9A4249DB83,2020-04-09,00:26:00,28.3,51.3,239,535,601,527,0,3,1,65,68,72,66,3,1,65,0.0,0.0,25.039288,121.612939,0,0,0,0,0,0,0,0,0,0,0,0,0,00000000
0C9A4249DB83,2020-04-09,00:26:15,28.3,51.3,239,529,597,527,0,3,1,65,79,59,76,2,2,65,0.0,0.0,25.039288,121.612939,0,0,0,0,0,0,0,0,0,0,0,0,0,00000000
0C9A4249DB83,2020-04-09,00:26:30,28.3,51.3,238,529,598,527,0,2,2,65,73,45,67,3,1,64,0.0,0.0,25.039288,121.612939,0,0,0,0,0,0,0,0,0,0,0,0,0,00000000
0C9A4249DB83,2020-04-09,00:26:45,28.3,51.3,241,531,597,527,0,3,1,64,67,65,54,2,2,64,0.0,0.0,25.039288,121.612939,0,0,0,0,0,0,0,0,0,0,0,0,0,00000000
0C9A4249DB83,2020-04-09,00:27:00,28.3,51.3,240,533,603,527,0,2,2,64,79,61,71,3,1,65,0.0,0.0,25.039288,121.612939,0,0,0,0,0,0,0,0,0,0,0,0,0,00000000
0C9A4249DB83,2020-04-09,00:27:15,28.3,51.3,238,538,607,527,0,3,1,65,78,54,66,3,1,65,0.0,0.0,25.039288,121.612939,0,0,0,0,0,0,0,0,0,0,0,0,0,00000000
0C9A4249DB83,2020-04-09,00:27:30,28.3,51.3,239,537,605,527,0,3,1,65,88,60,72,3,1,65,0.0,0.0,25.039288,121.612939,0,0,0,0,0,0,0,0,0,0,0,0,0,00000000
0C9A4249DB83,2020-04-09,00:27:45,28.3,51.3,239,537,605,526,0,3,1,65,76,54,61,3,1,64,0.0,0.0,25.039288,121.612939,0,0,0,0,0,0,0,0,0,0,0,0,0,00000000
0C9A4249DB83,2020-04-09,00:28:00,28.3,51.3,239,543,611,527,0,3,1,64,81,56,60,2,1,66,0.0,0.0,25.039288,121.612939,0,0,0,0,0,0,0,0,0,0,0,0,0,00000000
0C9A4249DB83,2020-04-09,00:28:15,28.3,51.3,238,541,608,527,0,2,1,66,77,45,57,3,0,65,0.0,0.0,25.039288,121.612939,0,0,0,0,0,0,0,0,0,0,0,0,0,00000000
0C9A4249DB83,2020-04-09,00:28:30,28.3,51.3,234,540,608,526,0,3,0,65,78,54,62,1,2,65,0.0,0.0,25.039288,121.612939,0,0,0,0,0,0,0,0,0,0,0,0,0,00000000
0C9A4249DB83,2020-04-09,00:28:45,28.3,51.3,234,531,603,526,0,1,2,65,75,59,61,4,1,64,0.0,0.0,25.039288,121.612939,0,0,0,0,0,0,0,0,0,0,0,0,0,00000000
0C9A4249DB83,2020-04-09,00:29:00,28.3,51.3,239,545,620,526,0,4,1,64,69,48,68,3,1,64,0.0,0.0,25.039288,121.612939,0,0,0,0,0,0,0,0,0,0,0,0,0,00000000
0C9A4249DB83,2020-04-09,00:29:15,28.3,51.3,237,540,615,525,0,3,1,64,72,69,67,3,0,65,0.0,0.0,25.039288,121.612939,0,0,0,0,0,0,0,0,0,0,0,0,0,00000000
0C9A4249DB83,2020-04-09,00:29:30,28.3,51.3,237,541,614,525,0,3,0,65,62,56,81,3,0,66,0.0,0.0,25.039288,121.612939,0,0,0,0,0,0,0,0,0,0,0,0,0,00000000
0C9A4249DB83,2020-04-09,00:29:45,28.3,51.2,235,537,607,526,0,3,0,66,72,47,66,3,1,64,0.0,0.0,25.039288,121.612939,0,0,0,0,0,0,0,0,0,0,0,0,0,00000000
0C9A4249DB83,2020-04-09,00:30:00,28.3,51.2,240,543,613,526,0,3,1,64,80,54,61,3,1,65,0.0,0.0,25.039288,121.612939,0,0,0,0,0,0,0,0,0,0,0,0,0,00000000
0C9A4249DB83,2020-04-09,00:30:15,28.3,51.3,237,533,598,526,0,3,1,65,68,52,70,3,1,65,0.0,0.0,25.039288,121.612939,0,0,0,0,0,0,0,0,0,0,0,0,0,00000000
0C9A4249DB83,2020-04-09,00:30:30,28.3,51.2,236,525,596,526,0,3,1,65,72,52,66,3,1,65,0.0,0.0,25.039288,121.612939,0,0,0,0,0,0,0,0,0,0,0,0,0,00000000
0C9A4249DB83,2020-04-09,00:30:45,28.3,51.3,238,522,593,525,0,3,1,65,68,56,58,3,1,65,0.0,0.0,25.039288,121.612939,0,0,0,0,0,0,0,0,0,0,0,0,0,00000000
0C9A4249DB83,2020-04-09,00:31:00,28.3,51.3,239,527,596,524,0,3,1,65,78,40,77,3,1,66,0.0,0.0,25.039288,121.612939,0,0,0,0,0,0,0,0,0,0,0,0,0,00000000
0C9A4249DB83,2020-04-09,00:31:15,28.3,51.3,241,530,597,525,0,3,1,66,80,62,74,3,1,64,0.0,0.0,25.039288,121.612939,0,0,0,0,0,0,0,0,0,0,0,0,0,00000000
0C9A4249DB83,2020-04-09,00:31:30,28.3,51.3,240,530,595,525,0,3,1,64,72,56,73,3,1,65,0.0,0.0,25.039288,121.612939,0,0,0,0,0,0,0,0,0,0,0,0,0,00000000
0C9A4249DB83,2020-04-09,00:31:45,28.3,51.3,239,535,598,525,0,3,1,65,79,36,62,2,1,65,0.0,0.0,25.039288,121.612939,0,0,0,0,0,0,0,0,0,0,0,0,0,00000000
0C9A4249DB83,2020-04-09,00:32:00,28.3,51.3,241,536,599,526,0,2,1,65,72,64,64,2,1,65,0.0,0.0,25.039288,121.612939,0,0,0,0,0,0,0,0,0,0,0,0,0,00000000
0C9A4249DB83,2020-04-09,00:32:15,28.3,51.3,241,535,593,526,0,2,1,65,78,52,74,2,1,65,0.0,0.0,25.039288,121.612939,0,0,0,0,0,0,0,0,0,0,0,0,0,00000000
0C9A4249DB83,2020-04-09,00:32:30,28.3,51.3,241,529,591,526,0,2,1,65,77,48,62,3,1,65,0.0,0.0,25.039288,121.612939,0,0,0,0,0,0,0,0,0,0,0,0,0,00000000
0C9A4249DB83,2020-04-09,00:32:45,28.3,51.3,239,525,583,526,0,3,1,65,58,42,54,3,1,65,0.0,0.0,25.039288,121.612939,0,0,0,0,0,0,0,0,0,0,0,0,0,00000000
0C9A4249DB83,2020-04-09,00:33:00,28.3,51.3,239,527,587,525,0,3,1,65,75,50,70,2,1,65,0.0,0.0,25.039288,121.612939,0,0,0,0,0,0,0,0,0,0,0,0,0,00000000
0C9A4249DB83,2020-04-09,00:33:15,28.3,51.3,241,529,584,526,0,2,1,65,78,42,77,2,1,64,0.0,0.0,25.039288,121.612939,0,0,0,0,0,0,0,0,0,0,0,0,0,00000000
0C9A4249DB83,2020-04-09,00:33:30,28.3,51.3,241,534,591,526,0,2,1,64,75,60,88,3,1,64,0.0,0.0,25.039288,121.612939,0,0,0,0,0,0,0,0,0,0,0,0,0,00000000
0C9A4249DB83,2020-04-09,00:33:45,28.3,51.3,239,531,590,526,0,3,1,64,59,52,74,2,1,64,0.0,0.0,25.039288,121.612939,0,0,0,0,0,0,0,0,0,0,0,0,0,00000000
0C9A4249DB83,2020-04-09,00:34:00,28.3,51.3,237,532,591,526,0,2,1,64,78,64,78,2,1,66,0.0,0.0,25.039288,121.612939,0,0,0,0,0,0,0,0,0,0,0,0,0,00000000
0C9A4249DB83,2020-04-09,00:34:15,28.3,51.3,239,533,590,526,0,2,1,66,81,50,73,3,1,65,0.0,0.0,25.039288,121.612939,0,0,0,0,0,0,0,0,0,0,0,0,0,00000000
0C9A4249DB83,2020-04-09,00:34:30,28.3,51.3,238,527,584,526,0,3,1,65,73,54,60,2,1,65,0.0,0.0,25.039288,121.612939,0,0,0,0,0,0,0,0,0,0,0,0,0,00000000
0C9A4249DB83,2020-04-09,00:34:45,28.3,51.2,240,527,585,526,0,2,1,65,63,52,70,3,1,65,0.0,0.0,25.039288,121.612939,0,0,0,0,0,0,0,0,0,0,0,0,0,00000000
0C9A4249DB83,2020-04-09,00:35:00,28.3,51.3,237,531,589,526,0,3,1,65,70,70,67,3,1,64,0.0,0.0,25.039288,121.612939,0,0,0,0,0,0,0,0,0,0,0,0,0,00000000
0C9A4249DB83,2020-04-09,00:35:15,28.3,51.3,238,531,587,526,0,3,1,64,80,51,77,3,0,65,0.0,0.0,25.039288,121.612939,0,0,0,0,0,0,0,0,0,0,0,0,0,00000000
0C9A4249DB83,2020-04-09,00:35:30,28.3,51.3,238,530,589,526,0,3,0,65,78,63,64,3,1,65,0.0,0.0,25.039288,121.612939,0,0,0,0,0,0,0,0,0,0,0,0,0,00000000
0C9A4249DB83,2020-04-09,00:35:45,28.3,51.3,237,526,585,526,0,3,1,65,86,58,66,3,1,65,0.0,0.0,25.039288,121.612939,0,0,0,0,0,0,0,0,0,0,0,0,0,00000000
0C9A4249DB83,2020-04-09,00:36:00,28.3,51.3,243,535,591,526,0,3,1,65,61,57,73,4,0,64,0.0,0.0,25.039288,121.612939,0,0,0,0,0,0,0,0,0,0,0,0,0,00000000
0C9A4249DB83,2020-04-09,00:36:15,28.3,51.3,239,519,577,526,0,4,0,64,69,65,72,1,3,64,0.0,0.0,25.039288,121.612939,0,0,0,0,0,0,0,0,0,0,0,0,0,00000000
0C9A4249DB83,2020-04-09,00:36:30,28.3,51.3,239,519,573,527,0,1,3,64,85,61,66,2,2,64,0.0,0.0,25.039288,121.612939,0,0,0,0,0,0,0,0,0,0,0,0,0,00000000
0C9A4249DB83,2020-04-09,00:36:45,28.3,51.3,239,519,581,527,0,2,2,64,63,61,65,3,1,65,0.0,0.0,25.039288,121.612939,0,0,0,0,0,0,0,0,0,0,0,0,0,00000000
0C9A4249DB83,2020-04-09,00:37:00,28.3,51.3,239,524,586,527,0,3,1,65,75,45,82,2,2,65,0.0,0.0,25.039288,121.612939,0,0,0,0,0,0,0,0,0,0,0,0,0,00000000
0C9A4249DB83,2020-04-09,00:37:15,28.3,51.2,239,525,589,527,0,2,2,65,79,49,79,3,1,64,0.0,0.0,25.039288,121.612939,0,0,0,0,0,0,0,0,0,0,0,0,0,00000000
0C9A4249DB83,2020-04-09,00:37:30,28.3,51.3,241,526,591,527,0,3,1,64,79,49,75,2,2,65,0.0,0.0,25.039288,121.612939,0,0,0,0,0,0,0,0,0,0,0,0,0,00000000
0C9A4249DB83,2020-04-09,00:37:45,28.3,51.3,236,524,589,527,0,2,2,65,80,60,70,2,0,65,0.0,0.0,25.039288,121.612939,0,0,0,0,0,0,0,0,0,0,0,0,0,00000000
0C9A4249DB83,2020-04-09,00:38:00,28.3,51.3,236,522,584,526,0,2,0,65,72,64,69,2,2,64,0.0,0.0,25.039288,121.612939,0,0,0,0,0,0,0,0,0,0,0,0,0,00000000
0C9A4249DB83,2020-04-09,00:38:15,28.3,51.3,237,524,582,526,0,2,2,64,76,52,79,2,2,65,0.0,0.0,25.039288,121.612939,0,0,0,0,0,0,0,0,0,0,0,0,0,00000000
0C9A4249DB83,2020-04-09,00:38:30,28.3,51.3,237,523,582,526,0,2,2,65,61,45,68,3,1,65,0.0,0.0,25.039288,121.612939,0,0,0,0,0,0,0,0,0,0,0,0,0,00000000
0C9A4249DB83,2020-04-09,00:38:45,28.3,51.3,237,518,580,526,0,3,1,65,83,49,67,2,2,64,0.0,0.0,25.039288,121.612939,0,0,0,0,0,0,0,0,0,0,0,0,0,00000000
0C9A4249DB83,2020-04-09,00:39:00,28.3,51.2,235,520,585,526,0,2,2,64,69,41,69,3,1,65,0.0,0.0,25.039288,121.612939,0,0,0,0,0,0,0,0,0,0,0,0,0,00000000
0C9A4249DB83,2020-04-09,00:39:15,28.3,51.2,233,515,581,526,0,3,1,65,86,56,67,3,1,64,0.0,0.0,25.039288,121.612939,0,0,0,0,0,0,0,0,0,0,0,0,0,00000000
0C9A4249DB83,2020-04-09,00:39:30,28.3,51.3,235,521,585,526,0,3,1,64,58,52,77,3,1,65,0.0,0.0,25.039288,121.612939,0,0,0,0,0,0,0,0,0,0,0,0,0,00000000
0C9A4249DB83,2020-04-09,00:39:45,28.3,51.3,234,521,582,526,0,3,1,65,67,44,64,2,1,65,0.0,0.0,25.039288,121.612939,0,0,0,0,0,0,0,0,0,0,0,0,0,00000000
0C9A4249DB83,2020-04-09,00:40:00,28.3,51.3,237,531,596,526,0,2,1,65,77,46,67,3,1,64,0.0,0.0,25.039288,121.612939,0,0,0,0,0,0,0,0,0,0,0,0,0,00000000
0C9A4249DB83,2020-04-09,00:40:15,28.3,51.3,239,532,600,526,0,3,1,64,69,47,86,2,2,64,0.0,0.0,25.039288,121.612939,0,0,0,0,0,0,0,0,0,0,0,0,0,00000000
0C9A4249DB83,2020-04-09,00:40:30,28.3,51.3,236,524,587,525,0,2,2,64,73,71,58,3,1,64,0.0,0.0,25.039288,121.612939,0,0,0,0,0,0,0,0,0,0,0,0,0,00000000
0C9A4249DB83,2020-04-09,00:40:45,28.3,51.3,236,518,572,525,0,3,1,64,89,50,72,2,1,64,0.0,0.0,25.039288,121.612939,0,0,0,0,0,0,0,0,0,0,0,0,0,00000000
0C9A4249DB83,2020-04-09,00:41:00,28.3,51.3,237,519,569,525,0,2,1,64,79,52,76,3,1,64,0.0,0.0,25.039288,121.612939,0,0,0,0,0,0,0,0,0,0,0,0,0,00000000
0C9A4249DB83,2020-04-09,00:41:15,28.3,51.2,238,518,570,525,0,3,1,64,74,63,55,3,2,65,0.0,0.0,25.039288,121.612939,0,0,0,0,0,0,0,0,0,0,0,0,0,00000000
0C9A4249DB83,2020-04-09,00:41:30,28.3,51.3,237,523,580,526,0,3,2,65,77,56,71,2,2,64,0.0,0.0,25.039288,121.612939,0,0,0,0,0,0,0,0,0,0,0,0,0,00000000
0C9A4249DB83,2020-04-09,00:41:45,28.3,51.2,235,514,578,525,0,2,2,64,59,51,57,3,1,65,0.0,0.0,25.039288,121.612939,0,0,0,0,0,0,0,0,0,0,0,0,0,00000000
0C9A4249DB83,2020-04-09,00:42:00,28.3,51.3,239,515,581,525,0,3,1,65,60,48,64,3,1,65,0.0,0.0,25.039288,121.612939,0,0,0,0,0,0,0,0,0,0,0,0,0,00000000
0C9A4249DB83,2020-04-09,00:42:15,28.3,51.2,238,515,581,526,0,3,1,65,74,52,69,3,1,64,0.0,0.0,25.039288,121.612939,0,0,0,0,0,0,0,0,0,0,0,0,0,00000000
0C9A4249DB83,2020-04-09,00:42:30,28.3,51.3,241,519,581,525,0,3,1,64,73,51,61,2,2,65,0.0,0.0,25.039288,121.612939,0,0,0,0,0,0,0,0,0,0,0,0,0,00000000
0C9A4249DB83,2020-04-09,00:42:45,28.3,51.2,237,519,585,525,0,2,2,65,86,53,72,2,1,65,0.0,0.0,25.039288,121.612939,0,0,0,0,0,0,0,0,0,0,0,0,0,00000000
0C9A4249DB83,2020-04-09,00:43:00,28.3,51.3,237,515,578,525,0,2,1,65,74,56,80,2,1,65,0.0,0.0,25.039288,121.612939,0,0,0,0,0,0,0,0,0,0,0,0,0,00000000
0C9A4249DB83,2020-04-09,00:43:15,28.3,51.3,238,514,572,525,0,2,1,65,72,59,50,2,2,65,0.0,0.0,25.039288,121.612939,0,0,0,0,0,0,0,0,0,0,0,0,0,00000000
0C9A4249DB83,2020-04-09,00:43:30,28.3,51.3,237,512,570,525,0,2,2,65,61,51,66,3,1,65,0.0,0.0,25.039288,121.612939,0,0,0,0,0,0,0,0,0,0,0,0,0,00000000
0C9A4249DB83,2020-04-09,00:43:45,28.3,51.3,236,517,580,526,0,3,1,65,80,44,63,3,1,64,0.0,0.0,25.039288,121.612939,0,0,0,0,0,0,0,0,0,0,0,0,0,00000000
0C9A4249DB83,2020-04-09,00:44:00,28.3,51.3,235,525,593,526,0,3,1,64,84,56,60,3,1,64,0.0,0.0,25.039288,121.612939,0,0,0,0,0,0,0,0,0,0,0,0,0,00000000
0C9A4249DB83,2020-04-09,00:44:15,28.3,51.3,234,521,582,526,0,3,1,64,63,66,65,2,1,65,0.0,0.0,25.039288,121.612939,0,0,0,0,0,0,0,0,0,0,0,0,0,00000000
0C9A4249DB83,2020-04-09,00:44:30,28.3,51.3,235,522,579,525,0,2,1,65,87,64,66,3,1,65,0.0,0.0,25.039288,121.612939,0,0,0,0,0,0,0,0,0,0,0,0,0,00000000
0C9A4249DB83,2020-04-09,00:44:45,28.3,51.3,236,517,571,525,0,3,1,65,57,58,70,2,1,65,0.0,0.0,25.039288,121.612939,0,0,0,0,0,0,0,0,0,0,0,0,0,00000000
0C9A4249DB83,2020-04-09,00:45:00,28.3,51.3,237,515,572,525,0,2,1,65,77,52,73,3,1,64,0.0,0.0,25.039288,121.612939,0,0,0,0,0,0,0,0,0,0,0,0,0,00000000
0C9A4249DB83,2020-04-09,00:45:15,28.3,51.2,236,521,576,524,0,3,1,64,76,54,75,3,1,65,0.0,0.0,25.039288,121.612939,0,0,0,0,0,0,0,0,0,0,0,0,0,00000000
0C9A4249DB83,2020-04-09,00:45:30,28.3,51.3,236,523,574,525,0,3,1,65,86,52,68,3,1,65,0.0,0.0,25.039288,121.612939,0,0,0,0,0,0,0,0,0,0,0,0,0,00000000
0C9A4249DB83,2020-04-09,00:45:45,28.3,51.3,238,520,581,525,0,3,1,65,64,54,50,3,1,65,0.0,0.0,25.039288,121.612939,0,0,0,0,0,0,0,0,0,0,0,0,0,00000000
0C9A4249DB83,2020-04-09,00:46:00,28.3,51.3,237,517,581,525,0,3,1,65,70,72,70,3,1,65,0.0,0.0,25.039288,121.612939,0,0,0,0,0,0,0,0,0,0,0,0,0,00000000
0C9A4249DB83,2020-04-09,00:46:15,28.3,51.2,237,518,574,525,0,3,1,65,75,58,68,2,1,65,0.0,0.0,25.039288,121.612939,0,0,0,0,0,0,0,0,0,0,0,0,0,00000000
0C9A4249DB83,2020-04-09,00:46:30,28.3,51.3,239,517,571,524,0,2,1,65,83,52,68,3,1,65,0.0,0.0,25.039288,121.612939,0,0,0,0,0,0,0,0,0,0,0,0,0,00000000
0C9A4249DB83,2020-04-09,00:46:45,28.3,51.3,238,516,573,524,0,3,1,65,83,56,72,2,1,65,0.0,0.0,25.039288,121.612939,0,0,0,0,0,0,0,0,0,0,0,0,0,00000000
0C9A4249DB83,2020-04-09,00:47:00,28.3,51.3,237,517,576,525,0,2,1,65,80,54,72,2,1,65,0.0,0.0,25.039288,121.612939,0,0,0,0,0,0,0,0,0,0,0,0,0,00000000
0C9A4249DB83,2020-04-09,00:47:15,28.3,51.3,234,516,574,525,0,2,1,65,71,46,78,3,1,65,0.0,0.0,25.039288,121.612939,0,0,0,0,0,0,0,0,0,0,0,0,0,00000000
0C9A4249DB83,2020-04-09,00:47:30,28.3,51.3,232,516,580,526,0,3,1,65,74,50,61,3,1,64,0.0,0.0,25.039288,121.612939,0,0,0,0,0,0,0,0,0,0,0,0,0,00000000
0C9A4249DB83,2020-04-09,00:47:45,28.3,51.3,233,514,577,525,0,3,1,64,65,48,76,2,1,64,0.0,0.0,25.039288,121.612939,0,0,0,0,0,0,0,0,0,0,0,0,0,00000000
0C9A4249DB83,2020-04-09,00:48:00,28.3,51.3,239,525,586,525,0,2,1,64,65,44,66,3,1,64,0.0,0.0,25.039288,121.612939,0,0,0,0,0,0,0,0,0,0,0,0,0,00000000
0C9A4249DB83,2020-04-09,00:48:15,28.3,51.3,237,519,575,524,0,3,1,64,74,53,64,3,2,66,0.0,0.0,25.039288,121.612939,0,0,0,0,0,0,0,0,0,0,0,0,0,00000000
0C9A4249DB83,2020-04-09,00:48:30,28.3,51.3,237,523,584,524,0,3,2,66,82,73,71,3,1,65,0.0,0.0,25.039288,121.612939,0,0,0,0,0,0,0,0,0,0,0,0,0,00000000
0C9A4249DB83,2020-04-09,00:48:45,28.3,51.3,235,521,585,526,0,3,1,65,82,40,76,3,1,65,0.0,0.0,25.039288,121.612939,0,0,0,0,0,0,0,0,0,0,0,0,0,00000000
0C9A4249DB83,2020-04-09,00:49:00,28.3,51.3,235,517,581,525,0,3,1,65,76,48,67,3,1,66,0.0,0.0,25.039288,121.612939,0,0,0,0,0,0,0,0,0,0,0,0,0,00000000
0C9A4249DB83,2020-04-09,00:49:15,28.3,51.3,232,511,571,525,0,3,1,66,75,56,80,4,1,64,0.0,0.0,25.039288,121.612939,0,0,0,0,0,0,0,0,0,0,0,0,0,00000000
0C9A4249DB83,2020-04-09,00:49:30,28.3,51.3,233,509,567,525,0,4,1,64,66,56,71,2,1,65,0.0,0.0,25.039288,121.612939,0,0,0,0,0,0,0,0,0,0,0,0,0,00000000
0C9A4249DB83,2020-04-09,00:49:45,28.3,51.3,231,510,570,526,0,2,1,65,65,54,68,3,1,65,0.0,0.0,25.039288,121.612939,0,0,0,0,0,0,0,0,0,0,0,0,0,00000000
0C9A4249DB83,2020-04-09,00:50:00,28.3,51.3,230,504,564,526,0,3,1,65,63,56,69,4,1,64,0.0,0.0,25.039288,121.612939,0,0,0,0,0,0,0,0,0,0,0,0,0,00000000
0C9A4249DB83,2020-04-09,00:50:15,28.3,51.3,234,513,573,526,0,4,1,64,75,50,59,3,1,65,0.0,0.0,25.039288,121.612939,0,0,0,0,0,0,0,0,0,0,0,0,0,00000000
0C9A4249DB83,2020-04-09,00:50:30,28.3,51.3,236,518,579,525,0,3,1,65,83,50,76,2,1,65,0.0,0.0,25.039288,121.612939,0,0,0,0,0,0,0,0,0,0,0,0,0,00000000
0C9A4249DB83,2020-04-09,00:50:45,28.3,51.3,233,512,575,526,0,2,1,65,78,59,70,2,2,65,0.0,0.0,25.039288,121.612939,0,0,0,0,0,0,0,0,0,0,0,0,0,00000000
0C9A4249DB83,2020-04-09,00:51:00,28.3,51.3,233,509,572,525,0,2,2,65,79,65,66,3,1,65,0.0,0.0,25.039288,121.612939,0,0,0,0,0,0,0,0,0,0,0,0,0,00000000
0C9A4249DB83,2020-04-09,00:51:15,28.3,51.3,233,504,567,526,0,3,1,65,68,46,65,3,1,64,0.0,0.0,25.039288,121.612939,0,0,0,0,0,0,0,0,0,0,0,0,0,00000000
0C9A4249DB83,2020-04-09,00:51:30,28.3,51.3,233,505,571,526,0,3,1,64,68,50,65,3,1,65,0.0,0.0,25.039288,121.612939,0,0,0,0,0,0,0,0,0,0,0,0,0,00000000
0C9A4249DB83,2020-04-09,00:51:45,28.3,51.3,235,505,568,526,0,3,1,65,78,60,74,3,1,65,0.0,0.0,25.039288,121.612939,0,0,0,0,0,0,0,0,0,0,0,0,0,00000000
0C9A4249DB83,2020-04-09,00:52:00,28.3,51.3,235,510,569,525,0,3,1,65,78,66,65,3,1,64,0.0,0.0,25.039288,121.612939,0,0,0,0,0,0,0,0,0,0,0,0,0,00000000
0C9A4249DB83,2020-04-09,00:52:15,28.3,51.3,234,503,565,526,0,3,1,64,60,56,75,3,1,65,0.0,0.0,25.039288,121.612939,0,0,0,0,0,0,0,0,0,0,0,0,0,00000000
0C9A4249DB83,2020-04-09,00:52:30,28.3,51.3,234,508,567,525,0,3,1,65,72,50,84,3,1,65,0.0,0.0,25.039288,121.612939,0,0,0,0,0,0,0,0,0,0,0,0,0,00000000
0C9A4249DB83,2020-04-09,00:52:45,28.3,51.3,235,509,564,526,0,3,1,65,74,48,66,3,1,65,0.0,0.0,25.039288,121.612939,0,0,0,0,0,0,0,0,0,0,0,0,0,00000000
0C9A4249DB83,2020-04-09,00:53:00,28.3,51.3,236,510,565,525,0,3,1,65,70,44,64,3,1,65,0.0,0.0,25.039288,121.612939,0,0,0,0,0,0,0,0,0,0,0,0,0,00000000
0C9A4249DB83,2020-04-09,00:53:15,28.3,51.3,235,507,555,526,0,3,1,65,84,59,72,3,2,65,0.0,0.0,25.039288,121.612939,0,0,0,0,0,0,0,0,0,0,0,0,0,00000000
0C9A4249DB83,2020-04-09,00:53:30,28.3,51.3,234,507,563,525,0,3,2,65,95,66,78,2,2,65,0.0,0.0,25.039288,121.612939,0,0,0,0,0,0,0,0,0,0,0,0,0,00000000
0C9A4249DB83,2020-04-09,00:53:45,28.3,51.3,233,511,569,526,0,2,2,65,87,51,68,3,1,65,0.0,0.0,25.039288,121.612939,0,0,0,0,0,0,0,0,0,0,0,0,0,00000000
0C9A4249DB83,2020-04-09,00:54:00,28.3,51.3,230,510,573,526,0,3,1,65,67,55,73,2,2,64,0.0,0.0,25.039288,121.612939,0,0,0,0,0,0,0,0,0,0,0,0,0,00000000
0C9A4249DB83,2020-04-09,00:54:15,28.3,51.3,234,509,574,526,0,2,2,64,63,55,72,3,1,64,0.0,0.0,25.039288,121.612939,0,0,0,0,0,0,0,0,0,0,0,0,0,00000000
0C9A4249DB83,2020-04-09,00:54:30,28.3,51.2,235,510,575,526,0,3,1,64,72,52,70,3,1,64,0.0,0.0,25.039288,121.612939,0,0,0,0,0,0,0,0,0,0,0,0,0,00000000
0C9A4249DB83,2020-04-09,00:54:45,28.3,51.3,236,512,569,526,0,3,1,64,78,54,62,3,1,64,0.0,0.0,25.039288,121.612939,0,0,0,0,0,0,0,0,0,0,0,0,0,00000000
0C9A4249DB83,2020-04-09,00:55:00,28.3,51.3,234,511,573,525,0,3,1,64,74,48,63,3,1,65,0.0,0.0,25.039288,121.612939,0,0,0,0,0,0,0,0,0,0,0,0,0,00000000
0C9A4249DB83,2020-04-09,00:55:15,28.3,51.3,234,513,567,524,0,3,1,65,72,38,62,3,1,65,0.0,0.0,25.039288,121.612939,0,0,0,0,0,0,0,0,0,0,0,0,0,00000000
0C9A4249DB83,2020-04-09,00:55:30,28.3,51.3,232,500,566,524,0,3,1,65,73,55,67,2,2,64,0.0,0.0,25.039288,121.612939,0,0,0,0,0,0,0,0,0,0,0,0,0,00000000
0C9A4249DB83,2020-04-09,00:55:45,28.3,51.2,233,508,569,524,0,2,2,64,81,47,77,3,1,65,0.0,0.0,25.039288,121.612939,0,0,0,0,0,0,0,0,0,0,0,0,0,00000000
0C9A4249DB83,2020-04-09,00:56:00,28.3,51.2,234,499,565,524,0,3,1,65,82,55,80,3,2,65,0.0,0.0,25.039288,121.612939,0,0,0,0,0,0,0,0,0,0,0,0,0,00000000
0C9A4249DB83,2020-04-09,00:56:15,28.3,51.3,233,500,567,524,0,3,2,65,74,48,66,3,2,65,0.0,0.0,25.039288,121.612939,0,0,0,0,0,0,0,0,0,0,0,0,0,00000000
0C9A4249DB83,2020-04-09,00:56:30,28.3,51.3,233,497,564,524,0,3,2,65,74,57,61,3,1,64,0.0,0.0,25.039288,121.612939,0,0,0,0,0,0,0,0,0,0,0,0,0,00000000
0C9A4249DB83,2020-04-09,00:56:45,28.3,51.3,228,493,557,523,0,3,1,64,75,43,69,2,2,65,0.0,0.0,25.039288,121.612939,0,0,0,0,0,0,0,0,0,0,0,0,0,00000000
0C9A4249DB83,2020-04-09,00:57:00,28.3,51.3,234,505,565,524,0,2,2,65,73,58,70,3,2,65,0.0,0.0,25.039288,121.612939,0,0,0,0,0,0,0,0,0,0,0,0,0,00000000
0C9A4249DB83,2020-04-09,00:57:15,28.3,51.2,233,505,566,524,0,3,2,65,72,55,65,3,1,64,0.0,0.0,25.039288,121.612939,0,0,0,0,0,0,0,0,0,0,0,0,0,00000000
0C9A4249DB83,2020-04-09,00:57:30,28.3,51.2,235,504,562,524,0,3,1,64,73,53,68,2,2,64,0.0,0.0,25.039288,121.612939,0,0,0,0,0,0,0,0,0,0,0,0,0,00000000
0C9A4249DB83,2020-04-09,00:57:45,28.3,51.3,233,500,559,524,0,2,2,64,64,48,73,2,2,65,0.0,0.0,25.039288,121.612939,0,0,0,0,0,0,0,0,0,0,0,0,0,00000000
0C9A4249DB83,2020-04-09,00:58:00,28.3,51.3,232,501,562,524,0,2,2,65,81,63,69,3,1,64,0.0,0.0,25.039288,121.612939,0,0,0,0,0,0,0,0,0,0,0,0,0,00000000
0C9A4249DB83,2020-04-09,00:58:15,28.3,51.3,236,517,582,524,0,3,1,64,75,50,69,2,1,65,0.0,0.0,25.039288,121.612939,0,0,0,0,0,0,0,0,0,0,0,0,0,00000000
0C9A4249DB83,2020-04-09,00:58:30,28.3,51.3,229,503,562,524,0,2,1,65,74,53,74,2,2,65,0.0,0.0,25.039288,121.612939,0,0,0,0,0,0,0,0,0,0,0,0,0,00000000
0C9A4249DB83,2020-04-09,00:58:45,28.3,51.2,229,505,557,525,0,2,2,65,74,49,64,2,1,65,0.0,0.0,25.039288,121.612939,0,0,0,0,0,0,0,0,0,0,0,0,0,00000000
0C9A4249DB83,2020-04-09,00:59:00,28.3,51.3,230,496,549,526,0,2,1,65,65,44,54,3,1,65,0.0,0.0,25.039288,121.612939,0,0,0,0,0,0,0,0,0,0,0,0,0,00000000
0C9A4249DB83,2020-04-09,00:59:15,28.3,51.3,232,501,559,525,0,3,1,65,65,54,74,2,1,65,0.0,0.0,25.039288,121.612939,0,0,0,0,0,0,0,0,0,0,0,0,0,00000000
0C9A4249DB83,2020-04-09,00:59:30,28.3,51.3,232,500,560,526,0,2,1,65,68,49,72,2,2,65,0.0,0.0,25.039288,121.612939,0,0,0,0,0,0,0,0,0,0,0,0,0,00000000
0C9A4249DB83,2020-04-09,00:59:45,28.3,51.2,232,503,559,525,0,2,2,65,77,59,75,3,1,64,0.0,0.0,25.039288,121.612939,0,0,0,0,0,0,0,0,0,0,0,0,0,00000000
0C9A4249DB83,2020-04-09,01:00:00,28.3,51.2,231,497,550,526,0,3,1,64,76,54,56,3,1,64,0.0,0.0,25.039288,121.612939,0,0,0,0,0,0,0,0,0,0,0,0,0,00000000
0C9A4249DB83,2020-04-09,01:00:15,28.3,51.3,231,499,549,526,0,3,1,64,72,56,72,3,1,64,0.0,0.0,25.039288,121.612939,0,0,0,0,0,0,0,0,0,0,0,0,0,00000000
0C9A4249DB83,2020-04-09,01:00:30,28.3,51.3,233,499,550,525,0,3,1,64,69,73,68,2,2,64,0.0,0.0,25.039288,121.612939,0,0,0,0,0,0,0,0,0,0,0,0,0,00000000
0C9A4249DB83,2020-04-09,01:00:45,28.3,51.3,233,499,554,525,0,2,2,64,70,49,75,2,1,65,0.0,0.0,25.039288,121.612939,0,0,0,0,0,0,0,0,0,0,0,0,0,00000000
0C9A4249DB83,2020-04-09,01:01:00,28.3,51.3,235,495,556,525,0,2,1,65,66,40,60,2,1,65,0.0,0.0,25.039288,121.612939,0,0,0,0,0,0,0,0,0,0,0,0,0,00000000
0C9A4249DB83,2020-04-09,01:01:15,28.3,51.3,233,492,553,524,0,2,1,65,75,50,79,3,1,66,0.0,0.0,25.039288,121.612939,0,0,0,0,0,0,0,0,0,0,0,0,0,00000000
0C9A4249DB83,2020-04-09,01:01:30,28.3,51.3,233,491,552,524,0,3,1,66,67,47,76,2,2,64,0.0,0.0,25.039288,121.612939,0,0,0,0,0,0,0,0,0,0,0,0,0,00000000
0C9A4249DB83,2020-04-09,01:01:45,28.3,51.3,233,495,549,525,0,2,2,64,83,59,72,3,1,66,0.0,0.0,25.039288,121.612939,0,0,0,0,0,0,0,0,0,0,0,0,0,00000000
0C9A4249DB83,2020-04-09,01:02:00,28.3,51.2,231,495,547,525,0,3,1,66,70,64,72,3,1,64,0.0,0.0,25.039288,121.612939,0,0,0,0,0,0,0,0,0,0,0,0,0,00000000
0C9A4249DB83,2020-04-09,01:02:15,28.3,51.3,231,495,543,524,0,3,1,64,64,44,71,3,1,65,0.0,0.0,25.039288,121.612939,0,0,0,0,0,0,0,0,0,0,0,0,0,00000000
0C9A4249DB83,2020-04-09,01:02:30,28.3,51.2,230,493,538,525,0,3,1,65,80,57,67,3,2,64,0.0,0.0,25.039288,121.612939,0,0,0,0,0,0,0,0,0,0,0,0,0,00000000
0C9A4249DB83,2020-04-09,01:02:45,28.3,51.2,231,494,547,526,0,3,2,64,73,59,67,2,3,65,0.0,0.0,25.039288,121.612939,0,0,0,0,0,0,0,0,0,0,0,0,0,00000000
0C9A4249DB83,2020-04-09,01:03:00,28.3,51.2,229,491,547,526,0,2,3,65,68,62,74,4,1,65,0.0,0.0,25.039288,121.612939,0,0,0,0,0,0,0,0,0,0,0,0,0,00000000
0C9A4249DB83,2020-04-09,01:03:15,28.3,51.2,230,493,555,526,0,4,1,65,78,52,68,2,1,65,0.0,0.0,25.039288,121.612939,0,0,0,0,0,0,0,0,0,0,0,0,0,00000000
0C9A4249DB83,2020-04-09,01:03:30,28.3,51.2,229,499,558,525,0,2,1,65,76,65,67,2,2,64,0.0,0.0,25.039288,121.612939,0,0,0,0,0,0,0,0,0,0,0,0,0,00000000
0C9A4249DB83,2020-04-09,01:03:45,28.3,51.2,228,503,559,525,0,2,2,64,85,65,71,3,1,65,0.0,0.0,25.039288,121.612939,0,0,0,0,0,0,0,0,0,0,0,0,0,00000000
0C9A4249DB83,2020-04-09,01:04:00,28.3,51.2,232,502,555,526,0,3,1,65,59,59,88,2,2,65,0.0,0.0,25.039288,121.612939,0,0,0,0,0,0,0,0,0,0,0,0,0,00000000
0C9A4249DB83,2020-04-09,01:04:15,28.3,51.2,232,495,547,525,0,2,2,65,77,49,76,3,1,65,0.0,0.0,25.039288,121.612939,0,0,0,0,0,0,0,0,0,0,0,0,0,00000000
0C9A4249DB83,2020-04-09,01:04:30,28.3,51.2,231,490,544,526,0,3,1,65,76,62,71,3,1,64,0.0,0.0,25.039288,121.612939,0,0,0,0,0,0,0,0,0,0,0,0,0,00000000
0C9A4249DB83,2020-04-09,01:04:45,28.3,51.2,231,489,543,526,0,3,1,64,80,52,71,3,1,65,0.0,0.0,25.039288,121.612939,0,0,0,0,0,0,0,0,0,0,0,0,0,00000000
0C9A4249DB83,2020-04-09,01:05:00,28.3,51.2,229,489,548,525,0,3,1,65,67,48,66,4,1,65,0.0,0.0,25.039288,121.612939,0,0,0,0,0,0,0,0,0,0,0,0,0,00000000
0C9A4249DB83,2020-04-09,01:05:15,28.3,51.2,231,491,550,525,0,4,1,65,71,52,72,3,1,65,0.0,0.0,25.039288,121.612939,0,0,0,0,0,0,0,0,0,0,0,0,0,00000000
0C9A4249DB83,2020-04-09,01:05:30,28.3,51.2,229,494,555,525,0,3,1,65,80,44,73,3,1,64,0.0,0.0,25.039288,121.612939,0,0,0,0,0,0,0,0,0,0,0,0,0,00000000
0C9A4249DB83,2020-04-09,01:05:45,28.3,51.2,230,495,553,525,0,3,1,64,78,52,65,3,1,65,0.0,0.0,25.039288,121.612939,0,0,0,0,0,0,0,0,0,0,0,0,0,00000000
0C9A4249DB83,2020-04-09,01:06:00,28.3,51.2,231,493,554,525,0,3,1,65,87,62,82,2,1,65,0.0,0.0,25.039288,121.612939,0,0,0,0,0,0,0,0,0,0,0,0,0,00000000
0C9A4249DB83,2020-04-09,01:06:15,28.3,51.2,230,491,559,525,0,2,1,65,80,58,76,2,1,65,0.0,0.0,25.039288,121.612939,0,0,0,0,0,0,0,0,0,0,0,0,0,00000000
0C9A4249DB83,2020-04-09,01:06:30,28.3,51.2,229,492,558,526,0,2,1,65,77,64,71,3,1,64,0.0,0.0,25.039288,121.612939,0,0,0,0,0,0,0,0,0,0,0,0,0,00000000
0C9A4249DB83,2020-04-09,01:06:45,28.3,51.2,229,498,562,526,0,3,1,64,66,62,62,3,1,64,0.0,0.0,25.039288,121.612939,0,0,0,0,0,0,0,0,0,0,0,0,0,00000000
0C9A4249DB83,2020-04-09,01:07:00,28.3,51.2,227,490,548,525,0,3,1,64,64,42,66,3,1,64,0.0,0.0,25.039288,121.612939,0,0,0,0,0,0,0,0,0,0,0,0,0,00000000
0C9A4249DB83,2020-04-09,01:07:15,28.3,51.2,229,499,556,526,0,3,1,64,78,53,73,3,2,65,0.0,0.0,25.039288,121.612939,0,0,0,0,0,0,0,0,0,0,0,0,0,00000000
0C9A4249DB83,2020-04-09,01:07:30,28.3,51.2,226,498,561,526,0,3,2,65,81,64,61,2,2,64,0.0,0.0,25.039288,121.612939,0,0,0,0,0,0,0,0,0,0,0,0,0,00000000
0C9A4249DB83,2020-04-09,01:07:45,28.3,51.2,230,503,559,526,0,2,2,64,74,56,70,2,2,64,0.0,0.0,25.039288,121.612939,0,0,0,0,0,0,0,0,0,0,0,0,0,00000000
0C9A4249DB83,2020-04-09,01:08:00,28.3,51.2,231,497,550,526,0,2,2,64,77,65,57,3,1,65,0.0,0.0,25.039288,121.612939,0,0,0,0,0,0,0,0,0,0,0,0,0,00000000
0C9A4249DB83,2020-04-09,01:08:15,28.3,51.2,234,497,550,526,0,3,1,65,71,54,62,2,1,65,0.0,0.0,25.039288,121.612939,0,0,0,0,0,0,0,0,0,0,0,0,0,00000000
0C9A4249DB83,2020-04-09,01:08:30,28.3,51.2,229,485,548,526,0,2,1,65,60,49,62,2,2,65,0.0,0.0,25.039288,121.612939,0,0,0,0,0,0,0,0,0,0,0,0,0,00000000
0C9A4249DB83,2020-04-09,01:08:45,28.3,51.2,229,485,541,526,0,2,2,65,73,61,74,3,1,65,0.0,0.0,25.039288,121.612939,0,0,0,0,0,0,0,0,0,0,0,0,0,00000000
0C9A4249DB83,2020-04-09,01:09:00,28.3,51.2,233,493,542,526,0,3,1,65,78,70,73,3,1,64,0.0,0.0,25.039288,121.612939,0,0,0,0,0,0,0,0,0,0,0,0,0,00000000
0C9A4249DB83,2020-04-09,01:09:15,28.3,51.2,230,491,537,526,0,3,1,64,82,42,73,3,1,65,0.0,0.0,25.039288,121.612939,0,0,0,0,0,0,0,0,0,0,0,0,0,00000000
0C9A4249DB83,2020-04-09,01:09:30,28.3,51.2,229,492,544,525,0,3,1,65,74,52,78,3,1,65,0.0,0.0,25.039288,121.612939,0,0,0,0,0,0,0,0,0,0,0,0,0,00000000
0C9A4249DB83,2020-04-09,01:09:45,28.3,51.2,227,486,537,524,0,3,1,65,64,46,60,3,1,65,0.0,0.0,25.039288,121.612939,0,0,0,0,0,0,0,0,0,0,0,0,0,00000000
0C9A4249DB83,2020-04-09,01:10:00,28.3,51.2,229,485,539,524,0,3,1,65,67,59,57,4,2,64,0.0,0.0,25.039288,121.612939,0,0,0,0,0,0,0,0,0,0,0,0,0,00000000
0C9A4249DB83,2020-04-09,01:10:15,28.3,51.3,226,481,539,523,0,4,2,64,72,41,64,4,1,64,0.0,0.0,25.039288,121.612939,0,0,0,0,0,0,0,0,0,0,0,0,0,00000000
0C9A4249DB83,2020-04-09,01:10:30,28.3,51.2,223,479,537,523,0,4,1,64,80,53,72,4,0,64,0.0,0.0,25.039288,121.612939,0,0,0,0,0,0,0,0,0,0,0,0,0,00000000
0C9A4249DB83,2020-04-09,01:10:45,28.3,51.2,227,484,543,523,0,4,0,64,73,47,71,3,1,65,0.0,0.0,25.039288,121.612939,0,0,0,0,0,0,0,0,0,0,0,0,0,00000000
0C9A4249DB83,2020-04-09,01:11:00,28.3,51.2,230,491,547,523,0,3,1,65,62,42,68,3,1,65,0.0,0.0,25.039288,121.612939,0,0,0,0,0,0,0,0,0,0,0,0,0,00000000
0C9A4249DB83,2020-04-09,01:11:15,28.3,51.2,232,493,546,523,0,3,1,65,66,50,71,3,1,64,0.0,0.0,25.039288,121.612939,0,0,0,0,0,0,0,0,0,0,0,0,0,00000000
0C9A4249DB83,2020-04-09,01:11:30,28.3,51.2,229,490,543,523,0,3,1,64,79,53,75,4,0,65,0.0,0.0,25.039288,121.612939,0,0,0,0,0,0,0,0,0,0,0,0,0,00000000
0C9A4249DB83,2020-04-09,01:11:45,28.3,51.3,231,491,544,523,0,4,0,65,60,49,59,4,1,64,0.0,0.0,25.039288,121.612939,0,0,0,0,0,0,0,0,0,0,0,0,0,00000000
0C9A4249DB83,2020-04-09,01:12:00,28.3,51.2,233,490,544,522,0,4,1,64,80,66,69,2,1,65,0.0,0.0,25.039288,121.612939,0,0,0,0,0,0,0,0,0,0,0,0,0,00000000
0C9A4249DB83,2020-04-09,01:12:15,28.3,51.2,233,485,535,523,0,2,1,65,77,58,64,3,1,65,0.0,0.0,25.039288,121.612939,0,0,0,0,0,0,0,0,0,0,0,0,0,00000000
0C9A4249DB83,2020-04-09,01:12:30,28.3,51.2,231,484,537,522,0,3,1,65,74,54,64,3,1,65,0.0,0.0,25.039288,121.612939,0,0,0,0,0,0,0,0,0,0,0,0,0,00000000
0C9A4249DB83,2020-04-09,01:12:45,28.3,51.2,226,489,538,522,0,3,1,65,70,47,62,3,2,65,0.0,0.0,25.039288,121.612939,0,0,0,0,0,0,0,0,0,0,0,0,0,00000000
0C9A4249DB83,2020-04-09,01:13:00,28.3,51.2,227,483,537,522,0,3,2,65,72,51,54,3,1,65,0.0,0.0,25.039288,121.612939,0,0,0,0,0,0,0,0,0,0,0,0,0,00000000
0C9A4249DB83,2020-04-09,01:13:15,28.3,51.2,224,481,531,522,0,3,1,65,62,59,61,3,2,64,0.0,0.0,25.039288,121.612939,0,0,0,0,0,0,0,0,0,0,0,0,0,00000000
0C9A4249DB83,2020-04-09,01:13:30,28.3,51.3,225,480,532,522,0,3,2,64,79,51,70,4,1,64,0.0,0.0,25.039288,121.612939,0,0,0,0,0,0,0,0,0,0,0,0,0,00000000
0C9A4249DB83,2020-04-09,01:13:45,28.3,51.3,224,483,543,522,0,4,1,64,78,56,79,2,1,65,0.0,0.0,25.039288,121.612939,0,0,0,0,0,0,0,0,0,0,0,0,0,00000000
0C9A4249DB83,2020-04-09,01:14:00,28.3,51.2,223,483,545,522,0,2,1,65,60,53,61,2,2,64,0.0,0.0,25.039288,121.612939,0,0,0,0,0,0,0,0,0,0,0,0,0,00000000
0C9A4249DB83,2020-04-09,01:14:15,28.3,51.2,222,474,537,522,0,2,2,64,83,59,64,3,1,64,0.0,0.0,25.039288,121.612939,0,0,0,0,0,0,0,0,0,0,0,0,0,00000000
0C9A4249DB83,2020-04-09,01:14:30,28.3,51.2,226,479,531,522,0,3,1,64,66,50,62,3,1,64,0.0,0.0,25.039288,121.612939,0,0,0,0,0,0,0,0,0,0,0,0,0,00000000
0C9A4249DB83,2020-04-09,01:14:45,28.3,51.2,227,481,533,522,0,3,1,64,88,66,78,3,1,64,0.0,0.0,25.039288,121.612939,0,0,0,0,0,0,0,0,0,0,0,0,0,00000000
0C9A4249DB83,2020-04-09,01:15:00,28.3,51.2,226,483,540,522,0,3,1,64,66,63,68,3,2,64,0.0,0.0,25.039288,121.612939,0,0,0,0,0,0,0,0,0,0,0,0,0,00000000
0C9A4249DB83,2020-04-09,01:15:15,28.3,51.2,223,481,535,522,0,3,2,64,68,59,68,3,1,64,0.0,0.0,25.039288,121.612939,0,0,0,0,0,0,0,0,0,0,0,0,0,00000000
0C9A4249DB83,2020-04-09,01:15:30,28.3,51.3,225,485,543,522,0,3,1,64,76,48,69,3,1,65,0.0,0.0,25.039288,121.612939,0,0,0,0,0,0,0,0,0,0,0,0,0,00000000
0C9A4249DB83,2020-04-09,01:15:45,28.3,51.2,226,486,537,523,0,3,1,65,78,58,60,3,1,65,0.0,0.0,25.039288,121.612939,0,0,0,0,0,0,0,0,0,0,0,0,0,00000000
0C9A4249DB83,2020-04-09,01:16:00,28.3,51.2,229,485,543,523,0,3,1,65,76,46,67,3,1,64,0.0,0.0,25.039288,121.612939,0,0,0,0,0,0,0,0,0,0,0,0,0,00000000
0C9A4249DB83,2020-04-09,01:16:15,28.3,51.3,229,485,544,522,0,3,1,64,71,45,67,4,0,65,0.0,0.0,25.039288,121.612939,0,0,0,0,0,0,0,0,0,0,0,0,0,00000000
0C9A4249DB83,2020-04-09,01:16:30,28.3,51.3,229,484,540,523,0,4,0,65,70,52,70,2,2,65,0.0,0.0,25.039288,121.612939,0,0,0,0,0,0,0,0,0,0,0,0,0,00000000
0C9A4249DB83,2020-04-09,01:16:45,28.3,51.3,227,483,538,523,0,2,2,65,61,47,75,3,1,66,0.0,0.0,25.039288,121.612939,0,0,0,0,0,0,0,0,0,0,0,0,0,00000000
0C9A4249DB83,2020-04-09,01:17:00,28.3,51.2,227,485,541,523,0,3,1,66,71,45,59,2,2,65,0.0,0.0,25.039288,121.612939,0,0,0,0,0,0,0,0,0,0,0,0,0,00000000
0C9A4249DB83,2020-04-09,01:17:15,28.3,51.2,227,481,543,523,0,2,2,65,76,51,82,2,1,65,0.0,0.0,25.039288,121.612939,0,0,0,0,0,0,0,0,0,0,0,0,0,00000000
0C9A4249DB83,2020-04-09,01:17:30,28.3,51.3,225,483,543,523,0,2,1,65,72,56,68,2,1,65,0.0,0.0,25.039288,121.612939,0,0,0,0,0,0,0,0,0,0,0,0,0,00000000
0C9A4249DB83,2020-04-09,01:17:45,28.3,51.2,227,487,541,523,0,2,1,65,64,52,70,2,1,65,0.0,0.0,25.039288,121.612939,0,0,0,0,0,0,0,0,0,0,0,0,0,00000000
0C9A4249DB83,2020-04-09,01:18:00,28.3,51.2,227,487,533,524,0,2,1,65,69,38,64,3,1,65,0.0,0.0,25.039288,121.612939,0,0,0,0,0,0,0,0,0,0,0,0,0,00000000
0C9A4249DB83,2020-04-09,01:18:15,28.3,51.2,229,492,537,524,0,3,1,65,76,55,62,3,2,65,0.0,0.0,25.039288,121.612939,0,0,0,0,0,0,0,0,0,0,0,0,0,00000000
0C9A4249DB83,2020-04-09,01:18:30,28.3,51.3,226,480,528,524,0,3,2,65,68,52,60,3,2,65,0.0,0.0,25.039288,121.612939,0,0,0,0,0,0,0,0,0,0,0,0,0,00000000
0C9A4249DB83,2020-04-09,01:18:45,28.3,51.2,225,480,529,524,0,3,2,65,81,68,65,2,2,64,0.0,0.0,25.039288,121.612939,0,0,0,0,0,0,0,0,0,0,0,0,0,00000000
0C9A4249DB83,2020-04-09,01:19:00,28.3,51.3,223,475,523,524,0,2,2,64,58,23,63,2,1,65,0.0,0.0,25.039288,121.612939,0,0,0,0,0,0,0,0,0,0,0,0,0,00000000
0C9A4249DB83,2020-04-09,01:19:15,28.3,51.3,225,485,535,523,0,2,1,65,65,62,70,3,1,65,0.0,0.0,25.039288,121.612939,0,0,0,0,0,0,0,0,0,0,0,0,0,00000000
0C9A4249DB83,2020-04-09,01:19:30,28.3,51.3,228,481,531,523,0,3,1,65,81,47,58,2,2,65,0.0,0.0,25.039288,121.612939,0,0,0,0,0,0,0,0,0,0,0,0,0,00000000
0C9A4249DB83,2020-04-09,01:19:45,28.3,51.2,227,481,527,523,0,2,2,65,91,59,79,3,1,64,0.0,0.0,25.039288,121.612939,0,0,0,0,0,0,0,0,0,0,0,0,0,00000000
0C9A4249DB83,2020-04-09,01:20:00,28.3,51.3,223,471,519,523,0,3,1,64,82,43,57,3,2,65,0.0,0.0,25.039288,121.612939,0,0,0,0,0,0,0,0,0,0,0,0,0,00000000
0C9A4249DB83,2020-04-09,01:20:15,28.3,51.2,226,481,531,523,0,3,2,65,82,64,72,3,2,65,0.0,0.0,25.039288,121.612939,0,0,0,0,0,0,0,0,0,0,0,0,0,00000000
0C9A4249DB83,2020-04-09,01:20:30,28.3,51.2,226,477,533,523,0,3,2,65,73,44,70,2,2,65,0.0,0.0,25.039288,121.612939,0,0,0,0,0,0,0,0,0,0,0,0,0,00000000
0C9A4249DB83,2020-04-09,01:20:45,28.3,51.3,226,471,523,524,0,2,2,65,79,52,62,3,0,65,0.0,0.0,25.039288,121.612939,0,0,0,0,0,0,0,0,0,0,0,0,0,00000000
0C9A4249DB83,2020-04-09,01:21:00,28.3,51.3,225,473,524,523,0,3,0,65,61,48,76,2,2,65,0.0,0.0,25.039288,121.612939,0,0,0,0,0,0,0,0,0,0,0,0,0,00000000
0C9A4249DB83,2020-04-09,01:21:15,28.3,51.2,225,470,523,522,0,2,2,65,71,53,66,3,1,65,0.0,0.0,25.039288,121.612939,0,0,0,0,0,0,0,0,0,0,0,0,0,00000000
0C9A4249DB83,2020-04-09,01:21:30,28.3,51.2,225,471,527,521,0,3,1,65,71,54,58,2,1,65,0.0,0.0,25.039288,121.612939,0,0,0,0,0,0,0,0,0,0,0,0,0,00000000
0C9A4249DB83,2020-04-09,01:21:45,28.3,51.2,226,473,524,521,0,2,1,65,80,50,64,2,1,65,0.0,0.0,25.039288,121.612939,0,0,0,0,0,0,0,0,0,0,0,0,0,00000000
0C9A4249DB83,2020-04-09,01:22:00,28.3,51.2,224,474,525,522,0,2,1,65,65,40,78,3,1,65,0.0,0.0,25.039288,121.612939,0,0,0,0,0,0,0,0,0,0,0,0,0,00000000
0C9A4249DB83,2020-04-09,01:22:15,28.3,51.2,223,473,525,522,0,3,1,65,76,62,66,3,1,65,0.0,0.0,25.039288,121.612939,0,0,0,0,0,0,0,0,0,0,0,0,0,00000000
0C9A4249DB83,2020-04-09,01:22:30,28.3,51.3,226,475,524,522,0,3,1,65,90,60,61,3,1,66,0.0,0.0,25.039288,121.612939,0,0,0,0,0,0,0,0,0,0,0,0,0,00000000
0C9A4249DB83,2020-04-09,01:22:45,28.3,51.2,225,475,525,523,0,3,1,66,84,44,70,3,1,64,0.0,0.0,25.039288,121.612939,0,0,0,0,0,0,0,0,0,0,0,0,0,00000000
0C9A4249DB83,2020-04-09,01:23:00,28.3,51.2,225,475,527,523,0,3,1,64,63,41,74,2,2,64,0.0,0.0,25.039288,121.612939,0,0,0,0,0,0,0,0,0,0,0,0,0,00000000
0C9A4249DB83,2020-04-09,01:23:15,28.3,51.3,223,474,529,523,0,2,2,64,60,32,77,2,2,65,0.0,0.0,25.039288,121.612939,0,0,0,0,0,0,0,0,0,0,0,0,0,00000000
0C9A4249DB83,2020-04-09,01:23:30,28.3,51.3,223,471,528,523,0,2,2,65,87,59,74,3,1,65,0.0,0.0,25.039288,121.612939,0,0,0,0,0,0,0,0,0,0,0,0,0,00000000
0C9A4249DB83,2020-04-09,01:23:45,28.3,51.2,223,468,519,523,0,3,1,65,80,50,62,3,1,65,0.0,0.0,25.039288,121.612939,0,0,0,0,0,0,0,0,0,0,0,0,0,00000000
0C9A4249DB83,2020-04-09,01:24:00,28.3,51.2,227,479,524,523,0,3,1,65,70,64,75,3,1,64,0.0,0.0,25.039288,121.612939,0,0,0,0,0,0,0,0,0,0,0,0,0,00000000
0C9A4249DB83,2020-04-09,01:24:15,28.3,51.2,226,475,524,522,0,3,1,64,90,68,64,3,1,64,0.0,0.0,25.039288,121.612939,0,0,0,0,0,0,0,0,0,0,0,0,0,00000000
0C9A4249DB83,2020-04-09,01:24:30,28.3,51.2,226,470,523,523,0,3,1,64,69,49,66,2,2,66,0.0,0.0,25.039288,121.612939,0,0,0,0,0,0,0,0,0,0,0,0,0,00000000
0C9A4249DB83,2020-04-09,01:24:45,28.3,51.2,224,465,515,523,0,2,2,66,68,49,57,2,1,65,0.0,0.0,25.039288,121.612939,0,0,0,0,0,0,0,0,0,0,0,0,0,00000000
0C9A4249DB83,2020-04-09,01:25:00,28.3,51.2,225,474,515,523,0,2,1,65,77,40,76,3,1,65,0.0,0.0,25.039288,121.612939,0,0,0,0,0,0,0,0,0,0,0,0,0,00000000
0C9A4249DB83,2020-04-09,01:25:15,28.3,51.2,223,477,519,523,0,3,1,65,78,38,73,3,1,64,0.0,0.0,25.039288,121.612939,0,0,0,0,0,0,0,0,0,0,0,0,0,00000000
0C9A4249DB83,2020-04-09,01:25:30,28.3,51.2,225,481,532,523,0,3,1,64,72,58,73,3,1,65,0.0,0.0,25.039288,121.612939,0,0,0,0,0,0,0,0,0,0,0,0,0,00000000
0C9A4249DB83,2020-04-09,01:25:45,28.3,51.2,225,473,531,524,0,3,1,65,74,56,74,3,1,65,0.0,0.0,25.039288,121.612939,0,0,0,0,0,0,0,0,0,0,0,0,0,00000000
0C9A4249DB83,2020-04-09,01:26:00,28.3,51.2,225,471,530,522,0,3,1,65,58,60,84,3,1,65,0.0,0.0,25.039288,121.612939,0,0,0,0,0,0,0,0,0,0,0,0,0,00000000
0C9A4249DB83,2020-04-09,01:26:15,28.3,51.2,224,472,527,522,0,3,1,65,66,54,66,3,1,65,0.0,0.0,25.039288,121.612939,0,0,0,0,0,0,0,0,0,0,0,0,0,00000000
0C9A4249DB83,2020-04-09,01:26:30,28.3,51.2,219,464,512,523,0,3,1,65,76,52,69,1,1,64,0.0,0.0,25.039288,121.612939,0,0,0,0,0,0,0,0,0,0,0,0,0,00000000
0C9A4249DB83,2020-04-09,01:26:45,28.3,51.2,221,471,526,523,0,1,1,64,68,52,71,3,1,65,0.0,0.0,25.039288,121.612939,0,0,0,0,0,0,0,0,0,0,0,0,0,00000000
0C9A4249DB83,2020-04-09,01:27:00,28.3,51.2,220,475,529,523,0,3,1,65,75,63,56,2,2,65,0.0,0.0,25.039288,121.612939,0,0,0,0,0,0,0,0,0,0,0,0,0,00000000
0C9A4249DB83,2020-04-09,01:27:15,28.3,51.2,218,473,532,524,0,2,2,65,71,70,62,3,2,65,0.0,0.0,25.039288,121.612939,0,0,0,0,0,0,0,0,0,0,0,0,0,00000000
0C9A4249DB83,2020-04-09,01:27:30,28.3,51.2,217,473,535,523,0,3,2,65,74,59,78,3,1,65,0.0,0.0,25.039288,121.612939,0,0,0,0,0,0,0,0,0,0,0,0,0,00000000
0C9A4249DB83,2020-04-09,01:27:45,28.3,51.2,219,467,532,523,0,3,1,65,66,46,70,3,1,65,0.0,0.0,25.039288,121.612939,0,0,0,0,0,0,0,0,0,0,0,0,0,00000000
0C9A4249DB83,2020-04-09,01:28:00,28.3,51.2,221,468,527,523,0,3,1,65,82,66,73,3,1,64,0.0,0.0,25.039288,121.612939,0,0,0,0,0,0,0,0,0,0,0,0,0,00000000
0C9A4249DB83,2020-04-09,01:28:15,28.3,51.2,221,467,527,523,0,3,1,64,80,56,67,3,1,65,0.0,0.0,25.039288,121.612939,0,0,0,0,0,0,0,0,0,0,0,0,0,00000000
0C9A4249DB83,2020-04-09,01:28:30,28.3,51.2,222,469,527,524,0,3,1,65,65,59,79,2,2,64,0.0,0.0,25.039288,121.612939,0,0,0,0,0,0,0,0,0,0,0,0,0,00000000
0C9A4249DB83,2020-04-09,01:28:45,28.3,51.2,221,470,533,523,0,2,2,64,74,59,62,2,1,64,0.0,0.0,25.039288,121.612939,0,0,0,0,0,0,0,0,0,0,0,0,0,00000000
0C9A4249DB83,2020-04-09,01:29:00,28.3,51.2,221,463,520,524,0,2,1,64,89,56,81,3,1,65,0.0,0.0,25.039288,121.612939,0,0,0,0,0,0,0,0,0,0,0,0,0,00000000
0C9A4249DB83,2020-04-09,01:29:15,28.3,51.2,221,463,516,523,0,3,1,65,80,52,69,3,1,64,0.0,0.0,25.039288,121.612939,0,0,0,0,0,0,0,0,0,0,0,0,0,00000000
0C9A4249DB83,2020-04-09,01:29:30,28.3,51.2,222,466,514,523,0,3,1,64,85,60,54,2,1,64,0.0,0.0,25.039288,121.612939,0,0,0,0,0,0,0,0,0,0,0,0,0,00000000
0C9A4249DB83,2020-04-09,01:29:45,28.3,51.2,223,468,515,524,0,2,1,64,73,60,76,3,1,64,0.0,0.0,25.039288,121.612939,0,0,0,0,0,0,0,0,0,0,0,0,0,00000000
0C9A4249DB83,2020-04-09,01:30:00,28.3,51.2,220,465,507,523,0,3,1,64,85,60,69,2,1,65,0.0,0.0,25.039288,121.612939,0,0,0,0,0,0,0,0,0,0,0,0,0,00000000
0C9A4249DB83,2020-04-09,01:30:15,28.3,51.2,221,463,510,524,0,2,1,65,69,50,62,3,1,65,0.0,0.0,25.039288,121.612939,0,0,0,0,0,0,0,0,0,0,0,0,0,00000000
0C9A4249DB83,2020-04-09,01:30:30,28.3,51.3,221,462,504,524,0,3,1,65,78,59,71,3,2,64,0.0,0.0,25.039288,121.612939,0,0,0,0,0,0,0,0,0,0,0,0,0,00000000
0C9A4249DB83,2020-04-09,01:30:45,28.3,51.2,226,461,507,523,0,3,2,64,68,51,62,3,1,64,0.0,0.0,25.039288,121.612939,0,0,0,0,0,0,0,0,0,0,0,0,0,00000000
0C9A4249DB83,2020-04-09,01:31:00,28.3,51.2,225,465,511,523,0,3,1,64,66,59,72,3,2,64,0.0,0.0,25.039288,121.612939,0,0,0,0,0,0,0,0,0,0,0,0,0,00000000
0C9A4249DB83,2020-04-09,01:31:15,28.3,51.2,224,461,511,524,0,3,2,64,68,54,76,3,2,64,0.0,0.0,25.039288,121.612939,0,0,0,0,0,0,0,0,0,0,0,0,0,00000000
0C9A4249DB83,2020-04-09,01:31:30,28.3,51.2,223,465,521,522,0,3,2,64,74,65,67,3,1,65,0.0,0.0,25.039288,121.612939,0,0,0,0,0,0,0,0,0,0,0,0,0,00000000
0C9A4249DB83,2020-04-09,01:31:45,28.3,51.2,222,465,513,522,0,3,1,65,69,50,68,2,1,65,0.0,0.0,25.039288,121.612939,0,0,0,0,0,0,0,0,0,0,0,0,0,00000000
0C9A4249DB83,2020-04-09,01:32:00,28.3,51.2,221,467,518,523,0,2,1,65,74,51,75,2,2,64,0.0,0.0,25.039288,121.612939,0,0,0,0,0,0,0,0,0,0,0,0,0,00000000
0C9A4249DB83,2020-04-09,01:32:15,28.4,51.2,225,474,529,523,0,2,2,64,71,67,73,3,1,65,0.0,0.0,25.039288,121.612939,0,0,0,0,0,0,0,0,0,0,0,0,0,00000000
0C9A4249DB83,2020-04-09,01:32:30,28.3,51.2,221,461,518,523,0,3,1,65,84,58,62,3,1,65,0.0,0.0,25.039288,121.612939,0,0,0,0,0,0,0,0,0,0,0,0,0,00000000
0C9A4249DB83,2020-04-09,01:32:45,28.3,51.2,222,463,516,522,0,3,1,65,86,44,61,3,1,64,0.0,0.0,25.039288,121.612939,0,0,0,0,0,0,0,0,0,0,0,0,0,00000000
0C9A4249DB83,2020-04-09,01:33:00,28.3,51.2,222,465,517,522,0,3,1,64,67,52,49,2,1,65,0.0,0.0,25.039288,121.612939,0,0,0,0,0,0,0,0,0,0,0,0,0,00000000
0C9A4249DB83,2020-04-09,01:33:15,28.4,51.2,224,466,511,523,0,2,1,65,72,52,65,4,1,64,0.0,0.0,25.039288,121.612939,0,0,0,0,0,0,0,0,0,0,0,0,0,00000000
0C9A4249DB83,2020-04-09,01:33:30,28.3,51.2,223,464,511,524,0,4,1,64,87,58,69,3,1,65,0.0,0.0,25.039288,121.612939,0,0,0,0,0,0,0,0,0,0,0,0,0,00000000
0C9A4249DB83,2020-04-09,01:33:45,28.3,51.2,221,461,506,524,0,3,1,65,68,59,68,1,2,65,0.0,0.0,25.039288,121.612939,0,0,0,0,0,0,0,0,0,0,0,0,0,00000000
0C9A4249DB83,2020-04-09,01:34:00,28.4,51.2,217,455,503,523,0,1,2,65,75,58,64,2,2,65,0.0,0.0,25.039288,121.612939,0,0,0,0,0,0,0,0,0,0,0,0,0,00000000
0C9A4249DB83,2020-04-09,01:34:15,28.3,51.2,217,461,511,522,0,2,2,65,83,53,70,3,1,65,0.0,0.0,25.039288,121.612939,0,0,0,0,0,0,0,0,0,0,0,0,0,00000000
0C9A4249DB83,2020-04-09,01:34:30,28.3,51.2,217,458,508,523,0,3,1,65,68,52,63,3,1,64,0.0,0.0,25.039288,121.612939,0,0,0,0,0,0,0,0,0,0,0,0,0,00000000
0C9A4249DB83,2020-04-09,01:34:45,28.3,51.2,219,461,509,523,0,3,1,64,70,52,73,3,1,65,0.0,0.0,25.039288,121.612939,0,0,0,0,0,0,0,0,0,0,0,0,0,00000000
0C9A4249DB83,2020-04-09,01:35:00,28.3,51.2,220,458,506,523,0,3,1,65,87,58,79,2,1,66,0.0,0.0,25.039288,121.612939,0,0,0,0,0,0,0,0,0,0,0,0,0,00000000
0C9A4249DB83,2020-04-09,01:35:15,28.3,51.2,218,457,501,524,0,2,1,66,77,60,51,3,1,65,0.0,0.0,25.039288,121.612939,0,0,0,0,0,0,0,0,0,0,0,0,0,00000000
0C9A4249DB83,2020-04-09,01:35:30,28.3,51.2,219,463,505,523,0,3,1,65,84,48,66,3,1,65,0.0,0.0,25.039288,121.612939,0,0,0,0,0,0,0,0,0,0,0,0,0,00000000
0C9A4249DB83,2020-04-09,01:35:45,28.3,51.2,220,469,510,523,0,3,1,65,71,64,74,2,1,65,0.0,0.0,25.039288,121.612939,0,0,0,0,0,0,0,0,0,0,0,0,0,00000000
0C9A4249DB83,2020-04-09,01:36:00,28.4,51.3,223,467,512,523,0,2,1,65,72,62,74,2,1,65,0.0,0.0,25.039288,121.612939,0,0,0,0,0,0,0,0,0,0,0,0,0,00000000
0C9A4249DB83,2020-04-09,01:36:15,28.3,51.2,220,461,502,523,0,2,1,65,79,46,67,3,1,64,0.0,0.0,25.039288,121.612939,0,0,0,0,0,0,0,0,0,0,0,0,0,00000000
0C9A4249DB83,2020-04-09,01:36:30,28.3,51.2,214,456,508,523,0,3,1,64,77,59,71,2,2,65,0.0,0.0,25.039288,121.612939,0,0,0,0,0,0,0,0,0,0,0,0,0,00000000
0C9A4249DB83,2020-04-09,01:36:45,28.3,51.2,219,461,517,523,0,2,2,65,81,61,69,3,1,64,0.0,0.0,25.039288,121.612939,0,0,0,0,0,0,0,0,0,0,0,0,0,00000000
0C9A4249DB83,2020-04-09,01:37:00,28.3,51.2,223,460,505,522,0,3,1,64,80,64,58,3,1,64,0.0,0.0,25.039288,121.612939,0,0,0,0,0,0,0,0,0,0,0,0,0,00000000
0C9A4249DB83,2020-04-09,01:37:15,28.3,51.2,220,464,514,523,0,3,1,64,70,52,53,3,1,65,0.0,0.0,25.039288,121.612939,0,0,0,0,0,0,0,0,0,0,0,0,0,00000000
0C9A4249DB83,2020-04-09,01:37:30,28.3,51.2,220,460,505,523,0,3,1,65,80,52,69,3,1,64,0.0,0.0,25.039288,121.612939,0,0,0,0,0,0,0,0,0,0,0,0,0,00000000
0C9A4249DB83,2020-04-09,01:37:45,28.3,51.2,219,462,511,522,0,3,1,64,73,48,59,2,1,65,0.0,0.0,25.039288,121.612939,0,0,0,0,0,0,0,0,0,0,0,0,0,00000000
0C9A4249DB83,2020-04-09,01:38:00,28.4,51.2,218,463,514,523,0,2,1,65,59,56,66,3,1,65,0.0,0.0,25.039288,121.612939,0,0,0,0,0,0,0,0,0,0,0,0,0,00000000
0C9A4249DB83,2020-04-09,01:38:15,28.3,51.2,219,460,515,522,0,3,1,65,74,58,67,3,1,64,0.0,0.0,25.039288,121.612939,0,0,0,0,0,0,0,0,0,0,0,0,0,00000000
0C9A4249DB83,2020-04-09,01:38:30,28.3,51.2,218,459,513,522,0,3,1,64,74,40,72,3,1,64,0.0,0.0,25.039288,121.612939,0,0,0,0,0,0,0,0,0,0,0,0,0,00000000
0C9A4249DB83,2020-04-09,01:38:45,28.4,51.2,216,454,504,523,0,3,1,64,67,50,69,2,1,65,0.0,0.0,25.039288,121.612939,0,0,0,0,0,0,0,0,0,0,0,0,0,00000000
0C9A4249DB83,2020-04-09,01:39:00,28.3,51.2,213,459,509,522,0,2,1,65,63,48,66,3,1,65,0.0,0.0,25.039288,121.612939,0,0,0,0,0,0,0,0,0,0,0,0,0,00000000
0C9A4249DB83,2020-04-09,01:39:15,28.3,51.2,213,453,499,522,0,3,1,65,66,48,77,3,1,64,0.0,0.0,25.039288,121.612939,0,0,0,0,0,0,0,0,0,0,0,0,0,00000000
0C9A4249DB83,2020-04-09,01:39:30,28.3,51.2,215,457,503,522,0,3,1,64,68,52,74,3,1,64,0.0,0.0,25.039288,121.612939,0,0,0,0,0,0,0,0,0,0,0,0,0,00000000
0C9A4249DB83,2020-04-09,01:39:45,28.4,51.2,215,451,498,523,0,3,1,64,80,53,78,3,0,66,0.0,0.0,25.039288,121.612939,0,0,0,0,0,0,0,0,0,0,0,0,0,00000000
0C9A4249DB83,2020-04-09,01:40:00,28.3,51.2,216,455,497,522,0,3,0,66,68,35,68,3,1,64,0.0,0.0,25.039288,121.612939,0,0,0,0,0,0,0,0,0,0,0,0,0,00000000
0C9A4249DB83,2020-04-09,01:40:15,28.4,51.2,215,456,499,522,0,3,1,64,80,74,69,3,1,65,0.0,0.0,25.039288,121.612939,0,0,0,0,0,0,0,0,0,0,0,0,0,00000000
0C9A4249DB83,2020-04-09,01:40:30,28.3,51.2,217,461,505,522,0,3,1,65,68,46,64,3,1,65,0.0,0.0,25.039288,121.612939,0,0,0,0,0,0,0,0,0,0,0,0,0,00000000
0C9A4249DB83,2020-04-09,01:40:45,28.3,51.2,217,461,510,522,0,3,1,65,92,68,85,3,1,64,0.0,0.0,25.039288,121.612939,0,0,0,0,0,0,0,0,0,0,0,0,0,00000000
0C9A4249DB83,2020-04-09,01:41:00,28.3,51.2,215,459,509,522,0,3,1,64,74,66,77,3,1,65,0.0,0.0,25.039288,121.612939,0,0,0,0,0,0,0,0,0,0,0,0,0,00000000
0C9A4249DB83,2020-04-09,01:41:15,28.3,51.2,215,457,504,522,0,3,1,65,66,41,72,3,2,65,0.0,0.0,25.039288,121.612939,0,0,0,0,0,0,0,0,0,0,0,0,0,00000000
0C9A4249DB83,2020-04-09,01:41:30,28.3,51.1,215,453,500,522,0,3,2,65,63,43,62,2,1,65,0.0,0.0,25.039288,121.612939,0,0,0,0,0,0,0,0,0,0,0,0,0,00000000
0C9A4249DB83,2020-04-09,01:41:45,28.3,51.2,216,450,498,522,0,2,1,65,78,51,76,2,0,65,0.0,0.0,25.039288,121.612939,0,0,0,0,0,0,0,0,0,0,0,0,0,00000000
0C9A4249DB83,2020-04-09,01:42:00,28.3,51.2,214,446,501,522,0,2,0,65,83,53,68,3,1,65,0.0,0.0,25.039288,121.612939,0,0,0,0,0,0,0,0,0,0,0,0,0,00000000
0C9A4249DB83,2020-04-09,01:42:15,28.3,51.2,214,448,502,522,0,3,1,65,82,58,78,3,1,65,0.0,0.0,25.039288,121.612939,0,0,0,0,0,0,0,0,0,0,0,0,0,00000000
0C9A4249DB83,2020-04-09,01:42:30,28.3,51.2,213,452,506,523,0,3,1,65,60,49,67,3,2,64,0.0,0.0,25.039288,121.612939,0,0,0,0,0,0,0,0,0,0,0,0,0,00000000
0C9A4249DB83,2020-04-09,01:42:45,28.3,51.3,216,457,509,522,0,3,2,64,68,55,57,3,1,65,0.0,0.0,25.039288,121.612939,0,0,0,0,0,0,0,0,0,0,0,0,0,00000000
0C9A4249DB83,2020-04-09,01:43:00,28.3,51.2,214,457,505,522,0,3,1,65,84,52,77,3,1,64,0.0,0.0,25.039288,121.612939,0,0,0,0,0,0,0,0,0,0,0,0,0,00000000
0C9A4249DB83,2020-04-09,01:43:15,28.3,51.2,213,457,503,522,0,3,1,64,71,56,70,4,1,64,0.0,0.0,25.039288,121.612939,0,0,0,0,0,0,0,0,0,0,0,0,0,00000000
0C9A4249DB83,2020-04-09,01:43:30,28.3,51.2,213,453,499,522,0,4,1,64,86,53,69,2,2,65,0.0,0.0,25.039288,121.612939,0,0,0,0,0,0,0,0,0,0,0,0,0,00000000
0C9A4249DB83,2020-04-09,01:43:45,28.3,51.3,213,451,490,522,0,2,2,65,57,46,62,3,2,65,0.0,0.0,25.039288,121.612939,0,0,0,0,0,0,0,0,0,0,0,0,0,00000000
0C9A4249DB83,2020-04-09,01:44:00,28.3,51.2,216,458,503,521,0,3,2,65,55,35,76,2,1,65,0.0,0.0,25.039288,121.612939,0,0,0,0,0,0,0,0,0,0,0,0,0,00000000
0C9A4249DB83,2020-04-09,01:44:15,28.3,51.2,216,459,511,521,0,2,1,65,71,48,64,3,1,65,0.0,0.0,25.039288,121.612939,0,0,0,0,0,0,0,0,0,0,0,0,0,00000000
0C9A4249DB83,2020-04-09,01:44:30,28.3,51.2,215,454,509,522,0,3,1,65,73,30,70,2,1,65,0.0,0.0,25.039288,121.612939,0,0,0,0,0,0,0,0,0,0,0,0,0,00000000
0C9A4249DB83,2020-04-09,01:44:45,28.3,51.3,215,457,511,522,0,2,1,65,71,50,54,3,1,65,0.0,0.0,25.039288,121.612939,0,0,0,0,0,0,0,0,0,0,0,0,0,00000000
0C9A4249DB83,2020-04-09,01:45:00,28.3,51.3,215,456,508,522,0,3,1,65,76,42,64,3,1,65,0.0,0.0,25.039288,121.612939,0,0,0,0,0,0,0,0,0,0,0,0,0,00000000
0C9A4249DB83,2020-04-09,01:45:15,28.3,51.3,214,456,505,522,0,3,1,65,60,34,65,3,1,64,0.0,0.0,25.039288,121.612939,0,0,0,0,0,0,0,0,0,0,0,0,0,00000000
0C9A4249DB83,2020-04-09,01:45:30,28.3,51.2,211,451,504,522,0,3,1,64,60,45,66,3,2,64,0.0,0.0,25.039288,121.612939,0,0,0,0,0,0,0,0,0,0,0,0,0,00000000
0C9A4249DB83,2020-04-09,01:45:45,28.3,51.3,211,451,500,521,0,3,2,64,58,40,62,3,2,64,0.0,0.0,25.039288,121.612939,0,0,0,0,0,0,0,0,0,0,0,0,0,00000000
0C9A4249DB83,2020-04-09,01:46:00,28.3,51.2,-1,-1,-1,521,0,3,2,64,67,43,61,2,1,65,0.0,0.0,25.039288,121.612939,0,0,0,0,0,0,0,0,0,0,0,0,0,00000000
0C9A4249DB83,2020-04-09,01:46:15,28.3,51.2,213,446,493,521,0,2,1,65,55,36,58,3,1,65,0.0,0.0,25.039288,121.612939,0,0,0,0,0,0,0,0,0,0,0,0,0,00000000
0C9A4249DB83,2020-04-09,01:46:30,28.3,51.3,214,449,491,521,0,3,1,65,68,46,60,3,1,65,0.0,0.0,25.039288,121.612939,0,0,0,0,0,0,0,0,0,0,0,0,0,00000000
0C9A4249DB83,2020-04-09,01:46:45,28.3,51.2,215,446,493,521,0,3,1,65,67,42,77,2,1,64,0.0,0.0,25.039288,121.612939,0,0,0,0,0,0,0,0,0,0,0,0,0,00000000
0C9A4249DB83,2020-04-09,01:47:00,28.3,51.3,214,449,501,522,0,2,1,64,72,57,75,2,2,65,0.0,0.0,25.039288,121.612939,0,0,0,0,0,0,0,0,0,0,0,0,0,00000000
0C9A4249DB83,2020-04-09,01:47:15,28.3,51.2,212,446,505,522,0,2,2,65,68,38,66,2,2,65,0.0,0.0,25.039288,121.612939,0,0,0,0,0,0,0,0,0,0,0,0,0,00000000
0C9A4249DB83,2020-04-09,01:47:30,28.3,51.2,211,446,505,522,0,2,2,65,72,35,63,2,1,64,0.0,0.0,25.039288,121.612939,0,0,0,0,0,0,0,0,0,0,0,0,0,00000000
0C9A4249DB83,2020-04-09,01:47:45,28.3,51.2,212,445,497,522,0,2,1,64,64,39,62,2,2,64,0.0,0.0,25.039288,121.612939,0,0,0,0,0,0,0,0,0,0,0,0,0,00000000
0C9A4249DB83,2020-04-09,01:48:00,28.3,51.2,215,449,496,522,0,2,2,64,63,57,67,3,1,65,0.0,0.0,25.039288,121.612939,0,0,0,0,0,0,0,0,0,0,0,0,0,00000000
0C9A4249DB83,2020-04-09,01:48:15,28.3,51.3,217,453,499,522,0,3,1,65,66,42,52,3,1,65,0.0,0.0,25.039288,121.612939,0,0,0,0,0,0,0,0,0,0,0,0,0,00000000
0C9A4249DB83,2020-04-09,01:48:30,28.3,51.2,216,459,504,521,0,3,1,65,78,54,50,3,1,65,0.0,0.0,25.039288,121.612939,0,0,0,0,0,0,0,0,0,0,0,0,0,00000000
0C9A4249DB83,2020-04-09,01:48:45,28.3,51.3,215,459,502,522,0,3,1,65,52,34,56,3,1,65,0.0,0.0,25.039288,121.612939,0,0,0,0,0,0,0,0,0,0,0,0,0,00000000
0C9A4249DB83,2020-04-09,01:49:00,28.3,51.3,212,442,493,523,0,3,1,65,76,48,58,3,1,65,0.0,0.0,25.039288,121.612939,0,0,0,0,0,0,0,0,0,0,0,0,0,00000000
0C9A4249DB83,2020-04-09,01:49:15,28.3,51.2,213,443,501,524,0,3,1,65,63,55,57,2,2,64,0.0,0.0,25.039288,121.612939,0,0,0,0,0,0,0,0,0,0,0,0,0,00000000
0C9A4249DB83,2020-04-09,01:49:30,28.3,51.2,216,454,505,523,0,2,2,64,61,43,81,3,1,65,0.0,0.0,25.039288,121.612939,0,0,0,0,0,0,0,0,0,0,0,0,0,00000000
0C9A4249DB83,2020-04-09,01:49:45,28.3,51.2,216,455,508,523,0,3,1,65,81,69,74,4,0,65,0.0,0.0,25.039288,121.612939,0,0,0,0,0,0,0,0,0,0,0,0,0,00000000
0C9A4249DB83,2020-04-09,01:50:00,28.3,51.3,217,450,498,523,0,4,0,65,69,58,65,3,2,64,0.0,0.0,25.039288,121.612939,0,0,0,0,0,0,0,0,0,0,0,0,0,00000000
0C9A4249DB83,2020-04-09,01:50:15,28.3,51.3,212,439,487,524,0,3,2,64,61,36,73,2,2,65,0.0,0.0,25.039288,121.612939,0,0,0,0,0,0,0,0,0,0,0,0,0,00000000
0C9A4249DB83,2020-04-09,01:50:30,28.3,51.3,213,442,480,525,0,2,2,65,60,50,67,2,2,64,0.0,0.0,25.039288,121.612939,0,0,0,0,0,0,0,0,0,0,0,0,0,00000000
0C9A4249DB83,2020-04-09,01:50:45,28.3,51.2,213,443,480,525,0,2,2,64,69,45,71,3,1,65,0.0,0.0,25.039288,121.612939,0,0,0,0,0,0,0,0,0,0,0,0,0,00000000
0C9A4249DB83,2020-04-09,01:51:00,28.3,51.2,213,445,487,525,0,3,1,65,67,33,65,2,2,64,0.0,0.0,25.039288,121.612939,0,0,0,0,0,0,0,0,0,0,0,0,0,00000000
0C9A4249DB83,2020-04-09,01:51:15,28.3,51.3,215,446,493,524,0,2,2,64,51,39,65,3,1,65,0.0,0.0,25.039288,121.612939,0,0,0,0,0,0,0,0,0,0,0,0,0,00000000
0C9A4249DB83,2020-04-09,01:51:30,28.3,51.2,211,444,500,524,0,3,1,65,67,51,72,2,2,65,0.0,0.0,25.039288,121.612939,0,0,0,0,0,0,0,0,0,0,0,0,0,00000000
0C9A4249DB83,2020-04-09,01:51:45,28.3,51.2,210,442,495,524,0,2,2,65,74,41,71,2,1,64,0.0,0.0,25.039288,121.612939,0,0,0,0,0,0,0,0,0,0,0,0,0,00000000
0C9A4249DB83,2020-04-09,01:52:00,28.3,51.2,211,447,505,524,0,2,1,64,65,44,61,3,1,65,0.0,0.0,25.039288,121.612939,0,0,0,0,0,0,0,0,0,0,0,0,0,00000000
0C9A4249DB83,2020-04-09,01:52:15,28.3,51.2,213,446,495,524,0,3,1,65,70,50,74,3,1,65,0.0,0.0,25.039288,121.612939,0,0,0,0,0,0,0,0,0,0,0,0,0,00000000
0C9A4249DB83,2020-04-09,01:52:30,28.3,51.2,212,442,493,524,0,3,1,65,55,43,60,2,2,65,0.0,0.0,25.039288,121.612939,0,0,0,0,0,0,0,0,0,0,0,0,0,00000000
0C9A4249DB83,2020-04-09,01:52:45,28.3,51.3,211,438,489,524,0,2,2,65,65,59,65,3,1,64,0.0,0.0,25.039288,121.612939,0,0,0,0,0,0,0,0,0,0,0,0,0,00000000
0C9A4249DB83,2020-04-09,01:53:00,28.3,51.2,210,435,482,524,0,3,1,64,63,36,72,2,1,64,0.0,0.0,25.039288,121.612939,0,0,0,0,0,0,0,0,0,0,0,0,0,00000000
0C9A4249DB83,2020-04-09,01:53:15,28.3,51.2,209,437,483,524,0,2,1,64,69,38,63,3,1,65,0.0,0.0,25.039288,121.612939,0,0,0,0,0,0,0,0,0,0,0,0,0,00000000
0C9A4249DB83,2020-04-09,01:53:30,28.3,51.2,209,443,489,524,0,3,1,65,74,52,54,3,1,65,0.0,0.0,25.039288,121.612939,0,0,0,0,0,0,0,0,0,0,0,0,0,00000000
0C9A4249DB83,2020-04-09,01:53:45,28.3,51.2,208,443,493,524,0,3,1,65,68,48,61,3,1,64,0.0,0.0,25.039288,121.612939,0,0,0,0,0,0,0,0,0,0,0,0,0,00000000
0C9A4249DB83,2020-04-09,01:54:00,28.3,51.2,209,444,495,524,0,3,1,64,59,44,72,2,1,64,0.0,0.0,25.039288,121.612939,0,0,0,0,0,0,0,0,0,0,0,0,0,00000000
0C9A4249DB83,2020-04-09,01:54:15,28.3,51.2,209,441,489,525,0,2,1,64,69,38,60,3,1,64,0.0,0.0,25.039288,121.612939,0,0,0,0,0,0,0,0,0,0,0,0,0,00000000
0C9A4249DB83,2020-04-09,01:54:30,28.3,51.2,212,446,486,524,0,3,1,64,74,53,63,3,2,65,0.0,0.0,25.039288,121.612939,0,0,0,0,0,0,0,0,0,0,0,0,0,00000000
0C9A4249DB83,2020-04-09,01:54:45,28.3,51.3,209,445,497,525,0,3,2,65,60,47,66,3,1,65,0.0,0.0,25.039288,121.612939,0,0,0,0,0,0,0,0,0,0,0,0,0,00000000
0C9A4249DB83,2020-04-09,01:55:00,28.3,51.3,210,445,493,524,0,3,1,65,71,47,61,2,2,64,0.0,0.0,25.039288,121.612939,0,0,0,0,0,0,0,0,0,0,0,0,0,00000000
0C9A4249DB83,2020-04-09,01:55:15,28.3,51.3,209,445,497,524,0,2,2,64,65,47,75,3,1,65,0.0,0.0,25.039288,121.612939,0,0,0,0,0,0,0,0,0,0,0,0,0,00000000
0C9A4249DB83,2020-04-09,01:55:30,28.3,51.2,211,443,496,524,0,3,1,65,76,54,66,3,1,65,0.0,0.0,25.039288,121.612939,0,0,0,0,0,0,0,0,0,0,0,0,0,00000000
0C9A4249DB83,2020-04-09,01:55:45,28.3,51.2,210,441,493,524,0,3,1,65,76,40,72,3,1,65,0.0,0.0,25.039288,121.612939,0,0,0,0,0,0,0,0,0,0,0,0,0,00000000
0C9A4249DB83,2020-04-09,01:56:00,28.3,51.2,207,439,490,524,0,3,1,65,84,51,72,3,0,65,0.0,0.0,25.039288,121.612939,0,0,0,0,0,0,0,0,0,0,0,0,0,00000000
0C9A4249DB83,2020-04-09,01:56:15,28.3,51.2,210,442,491,524,0,3,0,65,80,71,71,3,1,64,0.0,0.0,25.039288,121.612939,0,0,0,0,0,0,0,0,0,0,0,0,0,00000000
0C9A4249DB83,2020-04-09,01:56:30,28.3,51.2,209,437,484,523,0,3,1,64,68,62,73,3,1,65,0.0,0.0,25.039288,121.612939,0,0,0,0,0,0,0,0,0,0,0,0,0,00000000
0C9A4249DB83,2020-04-09,01:56:45,28.3,51.3,212,438,483,523,0,3,1,65,78,54,64,3,1,65,0.0,0.0,25.039288,121.612939,0,0,0,0,0,0,0,0,0,0,0,0,0,00000000
0C9A4249DB83,2020-04-09,01:57:00,28.3,51.2,212,436,479,522,0,3,1,65,78,48,68,3,1,65,0.0,0.0,25.039288,121.612939,0,0,0,0,0,0,0,0,0,0,0,0,0,00000000
0C9A4249DB83,2020-04-09,01:57:15,28.3,51.2,210,439,481,523,0,3,1,65,74,40,60,3,1,65,0.0,0.0,25.039288,121.612939,0,0,0,0,0,0,0,0,0,0,0,0,0,00000000
0C9A4249DB83,2020-04-09,01:57:30,28.3,51.2,211,439,478,523,0,3,1,65,53,35,62,2,2,65,0.0,0.0,25.039288,121.612939,0,0,0,0,0,0,0,0,0,0,0,0,0,00000000
0C9A4249DB83,2020-04-09,01:57:45,28.3,51.3,209,441,482,523,0,2,2,65,64,37,66,2,1,65,0.0,0.0,25.039288,121.612939,0,0,0,0,0,0,0,0,0,0,0,0,0,00000000
0C9A4249DB83,2020-04-09,01:58:00,28.3,51.2,213,442,485,523,0,2,1,65,61,44,65,3,1,64,0.0,0.0,25.039288,121.612939,0,0,0,0,0,0,0,0,0,0,0,0,0,00000000
0C9A4249DB83,2020-04-09,01:58:15,28.4,51.2,211,437,479,523,0,3,1,64,75,52,66,2,1,64,0.0,0.0,25.039288,121.612939,0,0,0,0,0,0,0,0,0,0,0,0,0,00000000
0C9A4249DB83,2020-04-09,01:58:30,28.3,51.2,211,439,485,522,0,2,1,64,68,56,65,2,1,65,0.0,0.0,25.039288,121.612939,0,0,0,0,0,0,0,0,0,0,0,0,0,00000000
0C9A4249DB83,2020-04-09,01:58:45,28.3,51.3,206,432,479,522,0,2,1,65,65,46,62,3,1,65,0.0,0.0,25.039288,121.612939,0,0,0,0,0,0,0,0,0,0,0,0,0,00000000
0C9A4249DB83,2020-04-09,01:59:00,28.3,51.2,207,439,491,522,0,3,1,65,60,54,58,3,1,65,0.0,0.0,25.039288,121.612939,0,0,0,0,0,0,0,0,0,0,0,0,0,00000000
0C9A4249DB83,2020-04-09,01:59:15,28.3,51.2,207,436,487,522,0,3,1,65,76,55,71,3,2,64,0.0,0.0,25.039288,121.612939,0,0,0,0,0,0,0,0,0,0,0,0,0,00000000
0C9A4249DB83,2020-04-09,01:59:30,28.3,51.2,210,437,489,522,0,3,2,64,73,43,58,2,1,64,0.0,0.0,25.039288,121.612939,0,0,0,0,0,0,0,0,0,0,0,0,0,00000000
0C9A4249DB83,2020-04-09,01:59:45,28.3,51.3,211,438,489,523,0,2,1,64,73,36,73,3,1,65,0.0,0.0,25.039288,121.612939,0,0,0,0,0,0,0,0,0,0,0,0,0,00000000
0C9A4249DB83,2020-04-09,02:00:00,28.3,51.2,210,433,482,521,0,3,1,65,62,46,62,3,1,65,0.0,0.0,25.039288,121.612939,0,0,0,0,0,0,0,0,0,0,0,0,0,00000000
0C9A4249DB83,2020-04-09,02:00:15,28.3,51.2,209,434,483,521,0,3,1,65,66,36,58,3,1,65,0.0,0.0,25.039288,121.612939,0,0,0,0,0,0,0,0,0,0,0,0,0,00000000
0C9A4249DB83,2020-04-09,02:00:30,28.3,51.2,208,434,488,521,0,3,1,65,66,38,67,3,1,64,0.0,0.0,25.039288,121.612939,0,0,0,0,0,0,0,0,0,0,0,0,0,00000000
0C9A4249DB83,2020-04-09,02:00:45,28.3,51.3,209,433,490,521,0,3,1,64,71,39,65,2,2,65,0.0,0.0,25.039288,121.612939,0,0,0,0,0,0,0,0,0,0,0,0,0,00000000
0C9A4249DB83,2020-04-09,02:01:00,28.3,51.3,208,433,491,521,0,2,2,65,75,45,58,3,1,65,0.0,0.0,25.039288,121.612939,0,0,0,0,0,0,0,0,0,0,0,0,0,00000000
0C9A4249DB83,2020-04-09,02:01:15,28.3,51.2,210,432,487,521,0,3,1,65,67,34,65,2,1,64,0.0,0.0,25.039288,121.612939,0,0,0,0,0,0,0,0,0,0,0,0,0,00000000
0C9A4249DB83,2020-04-09,02:01:30,28.3,51.3,209,432,491,521,0,2,1,64,67,40,80,3,1,64,0.0,0.0,25.039288,121.612939,0,0,0,0,0,0,0,0,0,0,0,0,0,00000000
0C9A4249DB83,2020-04-09,02:01:45,28.3,51.3,208,429,485,521,0,3,1,64,84,50,64,3,1,64,0.0,0.0,25.039288,121.612939,0,0,0,0,0,0,0,0,0,0,0,0,0,00000000
0C9A4249DB83,2020-04-09,02:02:00,28.3,51.3,204,424,474,521,0,3,1,64,64,58,62,3,1,64,0.0,0.0,25.039288,121.612939,0,0,0,0,0,0,0,0,0,0,0,0,0,00000000
0C9A4249DB83,2020-04-09,02:02:15,28.3,51.3,208,433,473,521,0,3,1,64,70,64,66,3,1,64,0.0,0.0,25.039288,121.612939,0,0,0,0,0,0,0,0,0,0,0,0,0,00000000
0C9A4249DB83,2020-04-09,02:02:30,28.3,51.3,207,430,475,521,0,3,1,64,79,46,79,2,1,65,0.0,0.0,25.039288,121.612939,0,0,0,0,0,0,0,0,0,0,0,0,0,00000000
0C9A4249DB83,2020-04-09,02:02:45,28.3,51.3,208,434,482,521,0,2,1,65,69,52,77,3,1,64,0.0,0.0,25.039288,121.612939,0,0,0,0,0,0,0,0,0,0,0,0,0,00000000
0C9A4249DB83,2020-04-09,02:03:00,28.3,51.3,207,435,487,521,0,3,1,64,68,44,67,3,1,65,0.0,0.0,25.039288,121.612939,0,0,0,0,0,0,0,0,0,0,0,0,0,00000000
0C9A4249DB83,2020-04-09,02:03:15,28.3,51.3,202,424,468,522,0,3,1,65,72,48,76,3,1,65,0.0,0.0,25.039288,121.612939,0,0,0,0,0,0,0,0,0,0,0,0,0,00000000
0C9A4249DB83,2020-04-09,02:03:30,28.3,51.3,205,429,473,522,0,3,1,65,69,44,66,2,1,65,0.0,0.0,25.039288,121.612939,0,0,0,0,0,0,0,0,0,0,0,0,0,00000000
0C9A4249DB83,2020-04-09,02:03:45,28.3,51.3,208,427,471,523,0,2,1,65,73,56,64,3,1,65,0.0,0.0,25.039288,121.612939,0,0,0,0,0,0,0,0,0,0,0,0,0,00000000
0C9A4249DB83,2020-04-09,02:04:00,28.3,51.3,209,430,480,523,0,3,1,65,68,35,67,3,2,64,0.0,0.0,25.039288,121.612939,0,0,0,0,0,0,0,0,0,0,0,0,0,00000000
0C9A4249DB83,2020-04-09,02:04:15,28.3,51.3,209,428,473,523,0,3,2,64,62,47,78,3,1,64,0.0,0.0,25.039288,121.612939,0,0,0,0,0,0,0,0,0,0,0,0,0,00000000
0C9A4249DB83,2020-04-09,02:04:30,28.3,51.3,206,424,471,523,0,3,1,64,74,52,77,3,1,65,0.0,0.0,25.039288,121.612939,0,0,0,0,0,0,0,0,0,0,0,0,0,00000000
0C9A4249DB83,2020-04-09,02:04:45,28.3,51.3,207,425,469,523,0,3,1,65,74,46,67,3,1,64,0.0,0.0,25.039288,121.612939,0,0,0,0,0,0,0,0,0,0,0,0,0,00000000
0C9A4249DB83,2020-04-09,02:05:00,28.3,51.3,211,433,475,523,0,3,1,64,68,39,68,3,2,64,0.0,0.0,25.039288,121.612939,0,0,0,0,0,0,0,0,0,0,0,0,0,00000000
0C9A4249DB83,2020-04-09,02:05:15,28.3,51.3,208,433,469,523,0,3,2,64,69,43,54,2,1,64,0.0,0.0,25.039288,121.612939,0,0,0,0,0,0,0,0,0,0,0,0,0,00000000
0C9A4249DB83,2020-04-09,02:05:30,28.3,51.3,207,431,475,524,0,2,1,64,67,40,59,3,1,65,0.0,0.0,25.039288,121.612939,0,0,0,0,0,0,0,0,0,0,0,0,0,00000000
0C9A4249DB83,2020-04-09,02:05:45,28.3,51.3,207,432,472,523,0,3,1,65,54,46,50,3,1,65,0.0,0.0,25.039288,121.612939,0,0,0,0,0,0,0,0,0,0,0,0,0,00000000
0C9A4249DB83,2020-04-09,02:06:00,28.3,51.3,209,429,473,523,0,3,1,65,58,56,65,3,1,64,0.0,0.0,25.039288,121.612939,0,0,0,0,0,0,0,0,0,0,0,0,0,00000000
0C9A4249DB83,2020-04-09,02:06:15,28.3,51.3,207,427,466,523,0,3,1,64,62,38,57,3,1,65,0.0,0.0,25.039288,121.612939,0,0,0,0,0,0,0,0,0,0,0,0,0,00000000
0C9A4249DB83,2020-04-09,02:06:30,28.3,51.3,207,430,473,522,0,3,1,65,58,41,66,3,2,65,0.0,0.0,25.039288,121.612939,0,0,0,0,0,0,0,0,0,0,0,0,0,00000000
0C9A4249DB83,2020-04-09,02:06:45,28.3,51.3,209,435,481,523,0,3,2,65,66,49,49,3,1,64,0.0,0.0,25.039288,121.612939,0,0,0,0,0,0,0,0,0,0,0,0,0,00000000
0C9A4249DB83,2020-04-09,02:07:00,28.3,51.3,205,428,475,522,0,3,1,64,69,42,53,2,1,65,0.0,0.0,25.039288,121.612939,0,0,0,0,0,0,0,0,0,0,0,0,0,00000000
0C9A4249DB83,2020-04-09,02:07:15,28.3,51.3,206,425,471,521,0,2,1,65,67,44,80,3,1,65,0.0,0.0,25.039288,121.612939,0,0,0,0,0,0,0,0,0,0,0,0,0,00000000
0C9A4249DB83,2020-04-09,02:07:30,28.3,51.2,207,427,476,521,0,3,1,65,62,48,65,3,1,64,0.0,0.0,25.039288,121.612939,0,0,0,0,0,0,0,0,0,0,0,0,0,00000000
0C9A4249DB83,2020-04-09,02:07:45,28.3,51.2,208,427,479,522,0,3,1,64,72,42,77,3,1,65,0.0,0.0,25.039288,121.612939,0,0,0,0,0,0,0,0,0,0,0,0,0,00000000
0C9A4249DB83,2020-04-09,02:08:00,28.3,51.3,207,427,477,521,0,3,1,65,64,44,52,3,1,65,0.0,0.0,25.039288,121.612939,0,0,0,0,0,0,0,0,0,0,0,0,0,00000000
0C9A4249DB83,2020-04-09,02:08:15,28.3,51.3,206,427,477,521,0,3,1,65,61,40,52,2,1,65,0.0,0.0,25.039288,121.612939,0,0,0,0,0,0,0,0,0,0,0,0,0,00000000
0C9A4249DB83,2020-04-09,02:08:30,28.3,51.3,202,424,469,521,0,2,1,65,79,54,73,3,1,64,0.0,0.0,25.039288,121.612939,0,0,0,0,0,0,0,0,0,0,0,0,0,00000000
0C9A4249DB83,2020-04-09,02:08:45,28.3,51.3,202,424,479,521,0,3,1,64,79,45,84,2,2,64,0.0,0.0,25.039288,121.612939,0,0,0,0,0,0,0,0,0,0,0,0,0,00000000
0C9A4249DB83,2020-04-09,02:09:00,28.3,51.3,202,423,480,521,0,2,2,64,69,49,75,3,1,65,0.0,0.0,25.039288,121.612939,0,0,0,0,0,0,0,0,0,0,0,0,0,00000000
0C9A4249DB83,2020-04-09,02:09:15,28.3,51.3,201,423,477,520,0,3,1,65,76,46,69,3,1,64,0.0,0.0,25.039288,121.612939,0,0,0,0,0,0,0,0,0,0,0,0,0,00000000
0C9A4249DB83,2020-04-09,02:09:30,28.3,51.3,204,420,468,520,0,3,1,64,64,34,79,3,1,65,0.0,0.0,25.039288,121.612939,0,0,0,0,0,0,0,0,0,0,0,0,0,00000000
0C9A4249DB83,2020-04-09,02:09:45,28.3,51.3,205,421,467,520,0,3,1,65,72,42,62,3,1,65,0.0,0.0,25.039288,121.612939,0,0,0,0,0,0,0,0,0,0,0,0,0,00000000
0C9A4249DB83,2020-04-09,02:10:00,28.3,51.3,207,425,474,520,0,3,1,65,72,52,70,3,1,65,0.0,0.0,25.039288,121.612939,0,0,0,0,0,0,0,0,0,0,0,0,0,00000000
0C9A4249DB83,2020-04-09,02:10:15,28.3,51.3,206,424,466,521,0,3,1,65,78,42,76,3,1,65,0.0,0.0,25.039288,121.612939,0,0,0,0,0,0,0,0,0,0,0,0,0,00000000
0C9A4249DB83,2020-04-09,02:10:30,28.3,51.3,205,421,460,520,0,3,1,65,81,61,76,2,2,65,0.0,0.0,25.039288,121.612939,0,0,0,0,0,0,0,0,0,0,0,0,0,00000000
0C9A4249DB83,2020-04-09,02:10:45,28.3,51.3,205,421,461,521,0,2,2,65,67,51,64,3,1,65,0.0,0.0,25.039288,121.612939,0,0,0,0,0,0,0,0,0,0,0,0,0,00000000
0C9A4249DB83,2020-04-09,02:11:00,28.3,51.2,205,421,467,521,0,3,1,65,75,64,66,2,1,65,0.0,0.0,25.039288,121.612939,0,0,0,0,0,0,0,0,0,0,0,0,0,00000000
0C9A4249DB83,2020-04-09,02:11:15,28.3,51.3,206,421,471,521,0,2,1,65,65,54,70,3,1,65,0.0,0.0,25.039288,121.612939,0,0,0,0,0,0,0,0,0,0,0,0,0,00000000
0C9A4249DB83,2020-04-09,02:11:30,28.3,51.3,205,419,467,521,0,3,1,65,74,54,65,3,1,64,0.0,0.0,25.039288,121.612939,0,0,0,0,0,0,0,0,0,0,0,0,0,00000000
0C9A4249DB83,2020-04-09,02:11:45,28.3,51.3,200,413,455,520,0,3,1,64,70,46,58,3,1,64,0.0,0.0,25.039288,121.612939,0,0,0,0,0,0,0,0,0,0,0,0,0,00000000
0C9A4249DB83,2020-04-09,02:12:00,28.3,51.3,203,421,465,519,0,3,1,64,66,52,71,3,1,65,0.0,0.0,25.039288,121.612939,0,0,0,0,0,0,0,0,0,0,0,0,0,00000000
0C9A4249DB83,2020-04-09,02:12:15,28.3,51.3,205,424,468,519,0,3,1,65,58,38,73,3,1,64,0.0,0.0,25.039288,121.612939,0,0,0,0,0,0,0,0,0,0,0,0,0,00000000
0C9A4249DB83,2020-04-09,02:12:30,28.3,51.3,202,420,465,520,0,3,1,64,60,44,65,3,1,65,0.0,0.0,25.039288,121.612939,0,0,0,0,0,0,0,0,0,0,0,0,0,00000000
0C9A4249DB83,2020-04-09,02:12:45,28.3,51.3,203,416,464,521,0,3,1,65,68,64,66,3,1,65,0.0,0.0,25.039288,121.612939,0,0,0,0,0,0,0,0,0,0,0,0,0,00000000
0C9A4249DB83,2020-04-09,02:13:00,28.3,51.3,201,412,465,521,0,3,1,65,72,44,70,3,1,65,0.0,0.0,25.039288,121.612939,0,0,0,0,0,0,0,0,0,0,0,0,0,00000000
0C9A4249DB83,2020-04-09,02:13:15,28.3,51.2,205,413,465,522,0,3,1,65,73,44,66,2,1,65,0.0,0.0,25.039288,121.612939,0,0,0,0,0,0,0,0,0,0,0,0,0,00000000
0C9A4249DB83,2020-04-09,02:13:30,28.3,51.2,205,415,461,522,0,2,1,65,72,43,56,2,2,65,0.0,0.0,25.039288,121.612939,0,0,0,0,0,0,0,0,0,0,0,0,0,00000000
0C9A4249DB83,2020-04-09,02:13:45,28.3,51.3,205,417,461,521,0,2,2,65,71,55,56,3,1,65,0.0,0.0,25.039288,121.612939,0,0,0,0,0,0,0,0,0,0,0,0,0,00000000
0C9A4249DB83,2020-04-09,02:14:00,28.3,51.3,204,419,464,520,0,3,1,65,78,51,53,3,2,64,0.0,0.0,25.039288,121.612939,0,0,0,0,0,0,0,0,0,0,0,0,0,00000000
0C9A4249DB83,2020-04-09,02:14:15,28.3,51.3,203,417,465,520,0,3,2,64,69,55,75,2,1,65,0.0,0.0,25.039288,121.612939,0,0,0,0,0,0,0,0,0,0,0,0,0,00000000
0C9A4249DB83,2020-04-09,02:14:30,28.3,51.3,203,422,473,520,0,2,1,65,62,58,68,2,1,65,0.0,0.0,25.039288,121.612939,0,0,0,0,0,0,0,0,0,0,0,0,0,00000000
0C9A4249DB83,2020-04-09,02:14:45,28.3,51.2,203,421,477,519,0,2,1,65,63,57,69,3,2,64,0.0,0.0,25.039288,121.612939,0,0,0,0,0,0,0,0,0,0,0,0,0,00000000
0C9A4249DB83,2020-04-09,02:15:00,28.3,51.3,201,418,475,519,0,3,2,64,62,43,73,3,1,65,0.0,0.0,25.039288,121.612939,0,0,0,0,0,0,0,0,0,0,0,0,0,00000000
0C9A4249DB83,2020-04-09,02:15:15,28.3,51.2,202,417,470,519,0,3,1,65,69,54,69,2,1,64,0.0,0.0,25.039288,121.612939,0,0,0,0,0,0,0,0,0,0,0,0,0,00000000
0C9A4249DB83,2020-04-09,02:15:30,28.3,51.3,203,415,465,520,0,2,1,64,64,46,59,2,1,65,0.0,0.0,25.039288,121.612939,0,0,0,0,0,0,0,0,0,0,0,0,0,00000000
0C9A4249DB83,2020-04-09,02:15:45,28.3,51.3,207,421,471,519,0,2,1,65,79,38,64,3,1,65,0.0,0.0,25.039288,121.612939,0,0,0,0,0,0,0,0,0,0,0,0,0,00000000
0C9A4249DB83,2020-04-09,02:16:00,28.3,51.3,205,421,477,519,0,3,1,65,77,52,69,2,1,64,0.0,0.0,25.039288,121.612939,0,0,0,0,0,0,0,0,0,0,0,0,0,00000000
0C9A4249DB83,2020-04-09,02:16:15,28.3,51.2,205,418,464,520,0,2,1,64,78,55,60,2,2,64,0.0,0.0,25.039288,121.612939,0,0,0,0,0,0,0,0,0,0,0,0,0,00000000
0C9A4249DB83,2020-04-09,02:16:30,28.3,51.3,203,410,449,520,0,2,2,64,64,47,65,2,1,65,0.0,0.0,25.039288,121.612939,0,0,0,0,0,0,0,0,0,0,0,0,0,00000000
0C9A4249DB83,2020-04-09,02:16:45,28.3,51.3,203,412,450,520,0,2,1,65,80,58,84,2,1,65,0.0,0.0,25.039288,121.612939,0,0,0,0,0,0,0,0,0,0,0,0,0,00000000
0C9A4249DB83,2020-04-09,02:17:00,28.3,51.3,203,409,450,520,0,2,1,65,58,38,85,2,1,64,0.0,0.0,25.039288,121.612939,0,0,0,0,0,0,0,0,0,0,0,0,0,00000000
0C9A4249DB83,2020-04-09,02:17:15,28.3,51.3,203,414,460,521,0,2,1,64,68,58,70,2,1,64,0.0,0.0,25.039288,121.612939,0,0,0,0,0,0,0,0,0,0,0,0,0,00000000
0C9A4249DB83,2020-04-09,02:17:30,28.3,51.3,201,411,459,521,0,2,1,64,81,54,68,3,1,64,0.0,0.0,25.039288,121.612939,0,0,0,0,0,0,0,0,0,0,0,0,0,00000000
0C9A4249DB83,2020-04-09,02:17:45,28.3,51.3,203,418,472,521,0,3,1,64,70,50,70,3,1,66,0.0,0.0,25.039288,121.612939,0,0,0,0,0,0,0,0,0,0,0,0,0,00000000
0C9A4249DB83,2020-04-09,02:18:00,28.3,51.3,203,414,465,520,0,3,1,66,72,50,68,3,1,64,0.0,0.0,25.039288,121.612939,0,0,0,0,0,0,0,0,0,0,0,0,0,00000000
0C9A4249DB83,2020-04-09,02:18:15,28.3,51.3,204,420,469,521,0,3,1,64,82,66,70,3,1,64,0.0,0.0,25.039288,121.612939,0,0,0,0,0,0,0,0,0,0,0,0,0,00000000
0C9A4249DB83,2020-04-09,02:18:30,28.3,51.3,203,415,458,521,0,3,1,64,62,46,66,3,1,64,0.0,0.0,25.039288,121.612939,0,0,0,0,0,0,0,0,0,0,0,0,0,00000000
0C9A4249DB83,2020-04-09,02:18:45,28.3,51.3,203,417,463,521,0,3,1,64,76,54,67,3,1,65,0.0,0.0,25.039288,121.612939,0,0,0,0,0,0,0,0,0,0,0,0,0,00000000
0C9A4249DB83,2020-04-09,02:19:00,28.3,51.3,201,413,461,521,0,3,1,65,66,52,78,3,1,65,0.0,0.0,25.039288,121.612939,0,0,0,0,0,0,0,0,0,0,0,0,0,00000000
0C9A4249DB83,2020-04-09,02:19:15,28.3,51.2,201,416,460,521,0,3,1,65,66,60,85,3,1,64,0.0,0.0,25.039288,121.612939,0,0,0,0,0,0,0,0,0,0,0,0,0,00000000
0C9A4249DB83,2020-04-09,02:19:30,28.3,51.3,205,413,451,521,0,3,1,64,80,70,73,3,1,65,0.0,0.0,25.039288,121.612939,0,0,0,0,0,0,0,0,0,0,0,0,0,00000000
0C9A4249DB83,2020-04-09,02:19:45,28.3,51.3,205,409,453,522,0,3,1,65,64,52,65,3,1,64,0.0,0.0,25.039288,121.612939,0,0,0,0,0,0,0,0,0,0,0,0,0,00000000
0C9A4249DB83,2020-04-09,02:20:00,28.3,51.3,204,409,454,521,0,3,1,64,75,54,58,2,1,64,0.0,0.0,25.039288,121.612939,0,0,0,0,0,0,0,0,0,0,0,0,0,00000000
0C9A4249DB83,2020-04-09,02:20:15,28.3,51.3,202,411,459,521,0,2,1,64,66,34,62,2,1,64,0.0,0.0,25.039288,121.612939,0,0,0,0,0,0,0,0,0,0,0,0,0,00000000
0C9A4249DB83,2020-04-09,02:20:30,28.3,51.3,203,411,453,521,0,2,1,64,66,54,69,2,1,65,0.0,0.0,25.039288,121.612939,0,0,0,0,0,0,0,0,0,0,0,0,0,00000000
0C9A4249DB83,2020-04-09,02:20:45,28.3,51.3,205,409,449,522,0,2,1,65,69,46,61,3,1,64,0.0,0.0,25.039288,121.612939,0,0,0,0,0,0,0,0,0,0,0,0,0,00000000
0C9A4249DB83,2020-04-09,02:21:00,28.3,51.3,204,411,451,522,0,3,1,64,68,45,60,3,2,64,0.0,0.0,25.039288,121.612939,0,0,0,0,0,0,0,0,0,0,0,0,0,00000000
0C9A4249DB83,2020-04-09,02:21:15,28.3,51.3,203,407,447,524,0,3,2,64,80,49,67,3,1,65,0.0,0.0,25.039288,121.612939,0,0,0,0,0,0,0,0,0,0,0,0,0,00000000
0C9A4249DB83,2020-04-09,02:21:30,28.3,51.3,201,407,446,523,0,3,1,65,74,54,70,3,1,65,0.0,0.0,25.039288,121.612939,0,0,0,0,0,0,0,0,0,0,0,0,0,00000000
0C9A4249DB83,2020-04-09,02:21:45,28.3,51.3,200,407,445,523,0,3,1,65,67,59,60,2,2,65,0.0,0.0,25.039288,121.612939,0,0,0,0,0,0,0,0,0,0,0,0,0,00000000
0C9A4249DB83,2020-04-09,02:22:00,28.3,51.3,200,409,451,522,0,2,2,65,71,43,71,3,1,64,0.0,0.0,25.039288,121.612939,0,0,0,0,0,0,0,0,0,0,0,0,0,00000000
0C9A4249DB83,2020-04-09,02:22:15,28.3,51.3,200,409,455,523,0,3,1,64,80,56,74,3,1,64,0.0,0.0,25.039288,121.612939,0,0,0,0,0,0,0,0,0,0,0,0,0,00000000
0C9A4249DB83,2020-04-09,02:22:30,28.3,51.3,200,410,453,522,0,3,1,64,84,52,56,3,1,64,0.0,0.0,25.039288,121.612939,0,0,0,0,0,0,0,0,0,0,0,0,0,00000000
0C9A4249DB83,2020-04-09,02:22:45,28.3,51.3,204,418,460,522,0,3,1,64,68,52,67,3,1,65,0.0,0.0,25.039288,121.612939,0,0,0,0,0,0,0,0,0,0,0,0,0,00000000
0C9A4249DB83,2020-04-09,02:23:00,28.3,51.3,201,411,452,523,0,3,1,65,91,53,65,2,2,64,0.0,0.0,25.039288,121.612939,0,0,0,0,0,0,0,0,0,0,0,0,0,00000000
0C9A4249DB83,2020-04-09,02:23:15,28.3,51.3,201,412,456,521,0,2,2,64,70,46,64,2,2,64,0.0,0.0,25.039288,121.612939,0,0,0,0,0,0,0,0,0,0,0,0,0,00000000
0C9A4249DB83,2020-04-09,02:23:30,28.3,51.3,202,416,456,519,0,2,2,64,70,49,77,2,1,65,0.0,0.0,25.039288,121.612939,0,0,0,0,0,0,0,0,0,0,0,0,0,00000000
0C9A4249DB83,2020-04-09,02:23:45,28.3,51.3,201,417,458,520,0,2,1,65,69,69,82,3,0,65,0.0,0.0,25.039288,121.612939,0,0,0,0,0,0,0,0,0,0,0,0,0,00000000
0C9A4249DB83,2020-04-09,02:24:00,28.3,51.3,200,411,455,520,0,3,0,65,80,61,59,3,1,64,0.0,0.0,25.039288,121.612939,0,0,0,0,0,0,0,0,0,0,0,0,0,00000000
0C9A4249DB83,2020-04-09,02:24:15,28.3,51.3,201,409,453,520,0,3,1,64,64,48,73,3,1,65,0.0,0.0,25.039288,121.612939,0,0,0,0,0,0,0,0,0,0,0,0,0,00000000
0C9A4249DB83,2020-04-09,02:24:30,28.3,51.3,201,403,447,520,0,3,1,65,71,48,66,2,1,65,0.0,0.0,25.039288,121.612939,0,0,0,0,0,0,0,0,0,0,0,0,0,00000000
0C9A4249DB83,2020-04-09,02:24:45,28.3,51.3,203,406,449,520,0,2,1,65,59,40,63,3,1,64,0.0,0.0,25.039288,121.612939,0,0,0,0,0,0,0,0,0,0,0,0,0,00000000
0C9A4249DB83,2020-04-09,02:25:00,28.3,51.3,203,404,445,521,0,3,1,64,85,49,51,2,2,65,0.0,0.0,25.039288,121.612939,0,0,0,0,0,0,0,0,0,0,0,0,0,00000000
0C9A4249DB83,2020-04-09,02:25:15,28.3,51.3,201,403,445,521,0,2,2,65,63,47,64,3,1,65,0.0,0.0,25.039288,121.612939,0,0,0,0,0,0,0,0,0,0,0,0,0,00000000
0C9A4249DB83,2020-04-09,02:25:30,28.3,51.3,197,404,446,521,0,3,1,65,75,66,68,2,1,65,0.0,0.0,25.039288,121.612939,0,0,0,0,0,0,0,0,0,0,0,0,0,00000000
0C9A4249DB83,2020-04-09,02:25:45,28.3,51.3,199,407,449,519,0,2,1,65,74,44,78,2,1,65,0.0,0.0,25.039288,121.612939,0,0,0,0,0,0,0,0,0,0,0,0,0,00000000
0C9A4249DB83,2020-04-09,02:26:00,28.3,51.3,199,403,448,519,0,2,1,65,57,54,65,3,1,64,0.0,0.0,25.039288,121.612939,0,0,0,0,0,0,0,0,0,0,0,0,0,00000000
0C9A4249DB83,2020-04-09,02:26:15,28.3,51.3,201,403,455,520,0,3,1,64,74,42,83,3,1,65,0.0,0.0,25.039288,121.612939,0,0,0,0,0,0,0,0,0,0,0,0,0,00000000
0C9A4249DB83,2020-04-09,02:26:30,28.3,51.3,201,404,459,520,0,3,1,65,72,40,70,3,1,65,0.0,0.0,25.039288,121.612939,0,0,0,0,0,0,0,0,0,0,0,0,0,00000000
0C9A4249DB83,2020-04-09,02:26:45,28.3,51.3,202,398,451,521,0,3,1,65,68,56,65,3,1,64,0.0,0.0,25.039288,121.612939,0,0,0,0,0,0,0,0,0,0,0,0,0,00000000
0C9A4249DB83,2020-04-09,02:27:00,28.3,51.3,201,401,446,520,0,3,1,64,53,38,77,2,1,65,0.0,0.0,25.039288,121.612939,0,0,0,0,0,0,0,0,0,0,0,0,0,00000000
0C9A4249DB83,2020-04-09,02:27:15,28.3,51.3,199,401,443,521,0,2,1,65,84,53,66,4,0,65,0.0,0.0,25.039288,121.612939,0,0,0,0,0,0,0,0,0,0,0,0,0,00000000
0C9A4249DB83,2020-04-09,02:27:30,28.3,51.3,200,398,442,521,0,4,0,65,68,56,76,2,2,65,0.0,0.0,25.039288,121.612939,0,0,0,0,0,0,0,0,0,0,0,0,0,00000000
0C9A4249DB83,2020-04-09,02:27:45,28.3,51.3,197,406,450,521,0,2,2,65,73,54,74,3,2,65,0.0,0.0,25.039288,121.612939,0,0,0,0,0,0,0,0,0,0,0,0,0,00000000
0C9A4249DB83,2020-04-09,02:28:00,28.3,51.3,197,402,444,521,0,3,2,65,59,61,74,2,1,65,0.0,0.0,25.039288,121.612939,0,0,0,0,0,0,0,0,0,0,0,0,0,00000000
0C9A4249DB83,2020-04-09,02:28:15,28.3,51.4,199,409,452,521,0,2,1,65,74,52,83,2,1,64,0.0,0.0,25.039288,121.612939,0,0,0,0,0,0,0,0,0,0,0,0,0,00000000
0C9A4249DB83,2020-04-09,02:28:30,28.3,51.3,201,406,447,521,0,2,1,64,71,60,67,3,1,65,0.0,0.0,25.039288,121.612939,0,0,0,0,0,0,0,0,0,0,0,0,0,00000000
0C9A4249DB83,2020-04-09,02:28:45,28.3,51.3,201,416,461,521,0,3,1,65,78,43,66,1,2,65,0.0,0.0,25.039288,121.612939,0,0,0,0,0,0,0,0,0,0,0,0,0,00000000
0C9A4249DB83,2020-04-09,02:29:00,28.3,51.3,200,414,458,521,0,1,2,65,68,53,66,3,1,65,0.0,0.0,25.039288,121.612939,0,0,0,0,0,0,0,0,0,0,0,0,0,00000000
0C9A4249DB83,2020-04-09,02:29:15,28.3,51.3,197,403,455,521,0,3,1,65,59,49,74,2,2,65,0.0,0.0,25.039288,121.612939,0,0,0,0,0,0,0,0,0,0,0,0,0,00000000
0C9A4249DB83,2020-04-09,02:29:30,28.3,51.3,195,398,453,521,0,2,2,65,71,47,57,3,1,64,0.0,0.0,25.039288,121.612939,0,0,0,0,0,0,0,0,0,0,0,0,0,00000000
0C9A4249DB83,2020-04-09,02:29:45,28.3,51.3,199,399,447,521,0,3,1,64,76,64,71,3,1,65,0.0,0.0,25.039288,121.612939,0,0,0,0,0,0,0,0,0,0,0,0,0,00000000
0C9A4249DB83,2020-04-09,02:30:00,28.3,51.3,198,398,448,521,0,3,1,65,76,44,61,3,1,64,0.0,0.0,25.039288,121.612939,0,0,0,0,0,0,0,0,0,0,0,0,0,00000000
0C9A4249DB83,2020-04-09,02:30:15,28.3,51.3,200,404,447,521,0,3,1,64,66,49,69,3,2,65,0.0,0.0,25.039288,121.612939,0,0,0,0,0,0,0,0,0,0,0,0,0,00000000
0C9A4249DB83,2020-04-09,02:30:30,28.3,51.3,199,407,449,521,0,3,2,65,68,51,71,3,1,64,0.0,0.0,25.039288,121.612939,0,0,0,0,0,0,0,0,0,0,0,0,0,00000000
0C9A4249DB83,2020-04-09,02:30:45,28.3,51.3,199,407,445,521,0,3,1,64,72,54,61,3,1,65,0.0,0.0,25.039288,121.612939,0,0,0,0,0,0,0,0,0,0,0,0,0,00000000
0C9A4249DB83,2020-04-09,02:31:00,28.3,51.3,196,399,441,521,0,3,1,65,67,52,70,2,1,65,0.0,0.0,25.039288,121.612939,0,0,0,0,0,0,0,0,0,0,0,0,0,00000000
0C9A4249DB83,2020-04-09,02:31:15,28.3,51.3,199,403,443,521,0,2,1,65,66,45,65,2,2,64,0.0,0.0,25.039288,121.612939,0,0,0,0,0,0,0,0,0,0,0,0,0,00000000
0C9A4249DB83,2020-04-09,02:31:30,28.3,51.3,202,401,441,520,0,2,2,64,64,37,67,2,1,65,0.0,0.0,25.039288,121.612939,0,0,0,0,0,0,0,0,0,0,0,0,0,00000000
0C9A4249DB83,2020-04-09,02:31:45,28.3,51.3,200,399,442,521,0,2,1,65,73,54,68,3,1,65,0.0,0.0,25.039288,121.612939,0,0,0,0,0,0,0,0,0,0,0,0,0,00000000
0C9A4249DB83,2020-04-09,02:32:00,28.3,51.3,198,390,431,521,0,3,1,65,68,52,62,3,1,65,0.0,0.0,25.039288,121.612939,0,0,0,0,0,0,0,0,0,0,0,0,0,00000000
0C9A4249DB83,2020-04-09,02:32:15,28.3,51.3,200,396,444,521,0,3,1,65,56,36,70,3,1,65,0.0,0.0,25.039288,121.612939,0,0,0,0,0,0,0,0,0,0,0,0,0,00000000
0C9A4249DB83,2020-04-09,02:32:30,28.3,51.3,203,402,445,521,0,3,1,65,72,56,68,3,1,65,0.0,0.0,25.039288,121.612939,0,0,0,0,0,0,0,0,0,0,0,0,0,00000000
0C9A4249DB83,2020-04-09,02:32:45,28.3,51.3,202,400,441,521,0,3,1,65,73,48,64,2,1,65,0.0,0.0,25.039288,121.612939,0,0,0,0,0,0,0,0,0,0,0,0,0,00000000
0C9A4249DB83,2020-04-09,02:33:00,28.3,51.4,201,399,441,522,0,2,1,65,71,52,66,3,1,65,0.0,0.0,25.039288,121.612939,0,0,0,0,0,0,0,0,0,0,0,0,0,00000000
0C9A4249DB83,2020-04-09,02:33:15,28.3,51.3,198,399,443,522,0,3,1,65,61,58,84,2,1,65,0.0,0.0,25.039288,121.612939,0,0,0,0,0,0,0,0,0,0,0,0,0,00000000
0C9A4249DB83,2020-04-09,02:33:30,28.3,51.3,197,397,441,522,0,2,1,65,68,39,50,2,2,65,0.0,0.0,25.039288,121.612939,0,0,0,0,0,0,0,0,0,0,0,0,0,00000000
0C9A4249DB83,2020-04-09,02:33:45,28.3,51.3,198,394,434,522,0,2,2,65,75,55,70,3,1,65,0.0,0.0,25.039288,121.612939,0,0,0,0,0,0,0,0,0,0,0,0,0,00000000
0C9A4249DB83,2020-04-09,02:34:00,28.3,51.3,198,392,433,523,0,3,1,65,83,55,70,2,2,65,0.0,0.0,25.039288,121.612939,0,0,0,0,0,0,0,0,0,0,0,0,0,00000000
0C9A4249DB83,2020-04-09,02:34:15,28.3,51.3,198,391,431,522,0,2,2,65,65,55,70,3,1,65,0.0,0.0,25.039288,121.612939,0,0,0,0,0,0,0,0,0,0,0,0,0,00000000
0C9A4249DB83,2020-04-09,02:34:30,28.3,51.3,199,399,447,522,0,3,1,65,60,54,58,3,1,65,0.0,0.0,25.039288,121.612939,0,0,0,0,0,0,0,0,0,0,0,0,0,00000000
0C9A4249DB83,2020-04-09,02:34:45,28.3,51.3,197,398,451,522,0,3,1,65,70,50,74,3,1,65,0.0,0.0,25.039288,121.612939,0,0,0,0,0,0,0,0,0,0,0,0,0,00000000
0C9A4249DB83,2020-04-09,02:35:00,28.3,51.3,198,399,449,521,0,3,1,65,70,48,62,3,1,65,0.0,0.0,25.039288,121.612939,0,0,0,0,0,0,0,0,0,0,0,0,0,00000000
0C9A4249DB83,2020-04-09,02:35:15,28.3,51.3,197,398,442,521,0,3,1,65,84,52,74,3,1,65,0.0,0.0,25.039288,121.612939,0,0,0,0,0,0,0,0,0,0,0,0,0,00000000
0C9A4249DB83,2020-04-09,02:35:30,28.3,51.3,199,399,439,521,0,3,1,65,72,47,74,3,2,65,0.0,0.0,25.039288,121.612939,0,0,0,0,0,0,0,0,0,0,0,0,0,00000000
0C9A4249DB83,2020-04-09,02:35:45,28.3,51.3,197,397,438,521,0,3,2,65,68,51,75,3,1,64,0.0,0.0,25.039288,121.612939,0,0,0,0,0,0,0,0,0,0,0,0,0,00000000
0C9A4249DB83,2020-04-09,02:36:00,28.3,51.3,199,403,448,521,0,3,1,64,59,52,71,2,1,65,0.0,0.0,25.039288,121.612939,0,0,0,0,0,0,0,0,0,0,0,0,0,00000000
0C9A4249DB83,2020-04-09,02:36:15,28.3,51.3,196,400,440,521,0,2,1,65,73,52,54,3,1,65,0.0,0.0,25.039288,121.612939,0,0,0,0,0,0,0,0,0,0,0,0,0,00000000
0C9A4249DB83,2020-04-09,02:36:30,28.3,51.3,197,398,438,521,0,3,1,65,82,62,69,3,1,64,0.0,0.0,25.039288,121.612939,0,0,0,0,0,0,0,0,0,0,0,0,0,00000000
0C9A4249DB83,2020-04-09,02:36:45,28.3,51.3,199,398,436,521,0,3,1,64,66,50,70,3,1,64,0.0,0.0,25.039288,121.612939,0,0,0,0,0,0,0,0,0,0,0,0,0,00000000
0C9A4249DB83,2020-04-09,02:37:00,28.3,51.3,197,400,438,521,0,3,1,64,47,52,56,2,1,64,0.0,0.0,25.039288,121.612939,0,0,0,0,0,0,0,0,0,0,0,0,0,00000000
0C9A4249DB83,2020-04-09,02:37:15,28.3,51.3,196,401,439,522,0,2,1,64,77,52,69,3,1,65,0.0,0.0,25.039288,121.612939,0,0,0,0,0,0,0,0,0,0,0,0,0,00000000
0C9A4249DB83,2020-04-09,02:37:30,28.3,51.3,192,386,425,522,0,3,1,65,76,43,65,1,2,64,0.0,0.0,25.039288,121.612939,0,0,0,0,0,0,0,0,0,0,0,0,0,00000000
0C9A4249DB83,2020-04-09,02:37:45,28.3,51.3,196,396,435,521,0,1,2,64,75,48,69,2,2,65,0.0,0.0,25.039288,121.612939,0,0,0,0,0,0,0,0,0,0,0,0,0,00000000
0C9A4249DB83,2020-04-09,02:38:00,28.3,51.3,195,395,437,521,0,2,2,65,69,45,75,3,1,64,0.0,0.0,25.039288,121.612939,0,0,0,0,0,0,0,0,0,0,0,0,0,00000000
0C9A4249DB83,2020-04-09,02:38:15,28.3,51.3,194,393,436,521,0,3,1,64,79,50,73,2,1,65,0.0,0.0,25.039288,121.612939,0,0,0,0,0,0,0,0,0,0,0,0,0,00000000
0C9A4249DB83,2020-04-09,02:38:30,28.3,51.3,195,388,431,521,0,2,1,65,59,44,65,3,1,64,0.0,0.0,25.039288,121.612939,0,0,0,0,0,0,0,0,0,0,0,0,0,00000000
0C9A4249DB83,2020-04-09,02:38:45,28.3,51.3,195,391,433,521,0,3,1,64,72,42,56,3,1,64,0.0,0.0,25.039288,121.612939,0,0,0,0,0,0,0,0,0,0,0,0,0,00000000
0C9A4249DB83,2020-04-09,02:39:00,28.3,51.3,196,392,433,521,0,3,1,64,64,54,69,3,1,65,0.0,0.0,25.039288,121.612939,0,0,0,0,0,0,0,0,0,0,0,0,0,00000000
0C9A4249DB83,2020-04-09,02:39:15,28.3,51.3,195,398,436,521,0,3,1,65,64,54,78,3,1,65,0.0,0.0,25.039288,121.612939,0,0,0,0,0,0,0,0,0,0,0,0,0,00000000
0C9A4249DB83,2020-04-09,02:39:30,28.3,51.3,197,400,436,521,0,3,1,65,72,38,58,3,1,65,0.0,0.0,25.039288,121.612939,0,0,0,0,0,0,0,0,0,0,0,0,0,00000000
0C9A4249DB83,2020-04-09,02:39:45,28.3,51.3,195,401,434,521,0,3,1,65,66,44,63,3,1,64,0.0,0.0,25.039288,121.612939,0,0,0,0,0,0,0,0,0,0,0,0,0,00000000
0C9A4249DB83,2020-04-09,02:40:00,28.3,51.3,196,401,439,520,0,3,1,64,67,43,51,2,2,65,0.0,0.0,25.039288,121.612939,0,0,0,0,0,0,0,0,0,0,0,0,0,00000000
0C9A4249DB83,2020-04-09,02:40:15,28.3,51.3,196,398,436,520,0,2,2,65,63,53,74,3,1,65,0.0,0.0,25.039288,121.612939,0,0,0,0,0,0,0,0,0,0,0,0,0,00000000
0C9A4249DB83,2020-04-09,02:40:30,28.3,51.4,196,397,442,521,0,3,1,65,76,50,71,3,1,64,0.0,0.0,25.039288,121.612939,0,0,0,0,0,0,0,0,0,0,0,0,0,00000000
0C9A4249DB83,2020-04-09,02:40:45,28.3,51.3,195,397,440,521,0,3,1,64,64,52,61,3,1,65,0.0,0.0,25.039288,121.612939,0,0,0,0,0,0,0,0,0,0,0,0,0,00000000
0C9A4249DB83,2020-04-09,02:41:00,28.3,51.3,196,393,435,520,0,3,1,65,74,59,77,3,2,64,0.0,0.0,25.039288,121.612939,0,0,0,0,0,0,0,0,0,0,0,0,0,00000000
0C9A4249DB83,2020-04-09,02:41:15,28.3,51.3,196,393,437,519,0,3,2,64,71,62,64,2,2,64,0.0,0.0,25.039288,121.612939,0,0,0,0,0,0,0,0,0,0,0,0,0,00000000
0C9A4249DB83,2020-04-09,02:41:30,28.3,51.3,198,394,431,519,0,2,2,64,60,59,63,2,1,65,0.0,0.0,25.039288,121.612939,0,0,0,0,0,0,0,0,0,0,0,0,0,00000000
0C9A4249DB83,2020-04-09,02:41:45,28.3,51.3,202,403,443,519,0,2,1,65,64,61,79,2,2,64,0.0,0.0,25.039288,121.612939,0,0,0,0,0,0,0,0,0,0,0,0,0,00000000
0C9A4249DB83,2020-04-09,02:42:00,28.3,51.3,197,396,436,518,0,2,2,64,66,44,59,2,2,65,0.0,0.0,25.039288,121.612939,0,0,0,0,0,0,0,0,0,0,0,0,0,00000000
0C9A4249DB83,2020-04-09,02:42:15,28.3,51.3,191,392,429,518,0,2,2,65,71,53,73,3,1,66,0.0,0.0,25.039288,121.612939,0,0,0,0,0,0,0,0,0,0,0,0,0,00000000
0C9A4249DB83,2020-04-09,02:42:30,28.3,51.3,189,379,416,518,0,3,1,66,76,60,74,3,1,64,0.0,0.0,25.039288,121.612939,0,0,0,0,0,0,0,0,0,0,0,0,0,00000000
0C9A4249DB83,2020-04-09,02:42:45,28.3,51.4,194,388,428,519,0,3,1,64,76,40,57,3,1,65,0.0,0.0,25.039288,121.612939,0,0,0,0,0,0,0,0,0,0,0,0,0,00000000
0C9A4249DB83,2020-04-09,02:43:00,28.3,51.4,197,399,433,518,0,3,1,65,64,39,71,3,0,64,0.0,0.0,25.039288,121.612939,0,0,0,0,0,0,0,0,0,0,0,0,0,00000000
0C9A4249DB83,2020-04-09,02:43:15,28.3,51.3,198,396,428,518,0,3,0,64,68,37,68,3,1,64,0.0,0.0,25.039288,121.612939,0,0,0,0,0,0,0,0,0,0,0,0,0,00000000
0C9A4249DB83,2020-04-09,02:43:30,28.3,51.3,195,391,423,518,0,3,1,64,74,43,75,3,2,65,0.0,0.0,25.039288,121.612939,0,0,0,0,0,0,0,0,0,0,0,0,0,00000000
0C9A4249DB83,2020-04-09,02:43:45,28.3,51.3,191,387,417,518,0,3,2,65,81,49,58,2,1,65,0.0,0.0,25.039288,121.612939,0,0,0,0,0,0,0,0,0,0,0,0,0,00000000
0C9A4249DB83,2020-04-09,02:44:00,28.3,51.4,195,387,415,518,0,2,1,65,70,55,54,2,2,65,0.0,0.0,25.039288,121.612939,0,0,0,0,0,0,0,0,0,0,0,0,0,00000000
0C9A4249DB83,2020-04-09,02:44:15,28.3,51.3,197,391,419,518,0,2,2,65,66,61,76,2,3,65,0.0,0.0,25.039288,121.612939,0,0,0,0,0,0,0,0,0,0,0,0,0,00000000
0C9A4249DB83,2020-04-09,02:44:30,28.3,51.3,196,390,422,518,0,2,3,65,64,62,77,2,1,64,0.0,0.0,25.039288,121.612939,0,0,0,0,0,0,0,0,0,0,0,0,0,00000000
0C9A4249DB83,2020-04-09,02:44:45,28.3,51.4,199,395,424,518,0,2,1,64,77,42,66,3,1,64,0.0,0.0,25.039288,121.612939,0,0,0,0,0,0,0,0,0,0,0,0,0,00000000
0C9A4249DB83,2020-04-09,02:45:00,28.3,51.3,197,389,423,519,0,3,1,64,61,44,62,4,1,64,0.0,0.0,25.039288,121.612939,0,0,0,0,0,0,0,0,0,0,0,0,0,00000000
0C9A4249DB83,2020-04-09,02:45:15,28.3,51.4,197,387,420,519,0,4,1,64,75,56,63,3,1,65,0.0,0.0,25.039288,121.612939,0,0,0,0,0,0,0,0,0,0,0,0,0,00000000
0C9A4249DB83,2020-04-09,02:45:30,28.3,51.3,197,385,422,519,0,3,1,65,68,28,57,3,1,64,0.0,0.0,25.039288,121.612939,0,0,0,0,0,0,0,0,0,0,0,0,0,00000000
0C9A4249DB83,2020-04-09,02:45:45,28.3,51.4,196,385,423,519,0,3,1,64,78,56,73,3,1,65,0.0,0.0,25.039288,121.612939,0,0,0,0,0,0,0,0,0,0,0,0,0,00000000
0C9A4249DB83,2020-04-09,02:46:00,28.3,51.3,192,385,424,519,0,3,1,65,74,51,63,3,2,64,0.0,0.0,25.039288,121.612939,0,0,0,0,0,0,0,0,0,0,0,0,0,00000000
0C9A4249DB83,2020-04-09,02:46:15,28.3,51.4,191,385,425,518,0,3,2,64,71,58,63,2,2,65,0.0,0.0,25.039288,121.612939,0,0,0,0,0,0,0,0,0,0,0,0,0,00000000
0C9A4249DB83,2020-04-09,02:46:30,28.3,51.4,189,384,418,519,0,2,2,65,74,77,66,2,1,65,0.0,0.0,25.039288,121.612939,0,0,0,0,0,0,0,0,0,0,0,0,0,00000000
0C9A4249DB83,2020-04-09,02:46:45,28.3,51.3,191,383,418,520,0,2,1,65,78,65,73,2,2,64,0.0,0.0,25.039288,121.612939,0,0,0,0,0,0,0,0,0,0,0,0,0,00000000
0C9A4249DB83,2020-04-09,02:47:00,28.3,51.3,193,385,415,521,0,2,2,64,64,54,77,2,2,65,0.0,0.0,25.039288,121.612939,0,0,0,0,0,0,0,0,0,0,0,0,0,00000000
0C9A4249DB83,2020-04-09,02:47:15,28.3,51.3,196,389,417,520,0,2,2,65,83,59,68,3,1,65,0.0,0.0,25.039288,121.612939,0,0,0,0,0,0,0,0,0,0,0,0,0,00000000
0C9A4249DB83,2020-04-09,02:47:30,28.3,51.3,195,391,425,519,0,3,1,65,81,54,73,4,1,64,0.0,0.0,25.039288,121.612939,0,0,0,0,0,0,0,0,0,0,0,0,0,00000000
0C9A4249DB83,2020-04-09,02:47:45,28.3,51.4,195,386,419,519,0,4,1,64,75,42,59,3,1,65,0.0,0.0,25.039288,121.612939,0,0,0,0,0,0,0,0,0,0,0,0,0,00000000
0C9A4249DB83,2020-04-09,02:48:00,28.3,51.3,193,381,421,519,0,3,1,65,71,55,67,2,2,64,0.0,0.0,25.039288,121.612939,0,0,0,0,0,0,0,0,0,0,0,0,0,00000000
0C9A4249DB83,2020-04-09,02:48:15,28.3,51.3,193,377,415,519,0,2,2,64,75,47,75,3,1,65,0.0,0.0,25.039288,121.612939,0,0,0,0,0,0,0,0,0,0,0,0,0,00000000
0C9A4249DB83,2020-04-09,02:48:30,28.3,51.3,193,378,419,520,0,3,1,65,87,65,57,2,2,64,0.0,0.0,25.039288,121.612939,0,0,0,0,0,0,0,0,0,0,0,0,0,00000000
0C9A4249DB83,2020-04-09,02:48:45,28.3,51.3,193,381,420,520,0,2,2,64,81,53,72,3,1,64,0.0,0.0,25.039288,121.612939,0,0,0,0,0,0,0,0,0,0,0,0,0,00000000
0C9A4249DB83,2020-04-09,02:49:00,28.3,51.3,195,385,425,521,0,3,1,64,72,58,74,3,1,64,0.0,0.0,25.039288,121.612939,0,0,0,0,0,0,0,0,0,0,0,0,0,00000000
0C9A4249DB83,2020-04-09,02:49:15,28.3,51.3,194,387,429,521,0,3,1,64,68,48,66,3,1,64,0.0,0.0,25.039288,121.612939,0,0,0,0,0,0,0,0,0,0,0,0,0,00000000
0C9A4249DB83,2020-04-09,02:49:30,28.3,51.3,194,384,431,521,0,3,1,64,70,54,70,3,1,64,0.0,0.0,25.039288,121.612939,0,0,0,0,0,0,0,0,0,0,0,0,0,00000000
0C9A4249DB83,2020-04-09,02:49:45,28.3,51.3,192,380,425,521,0,3,1,64,62,36,69,3,1,65,0.0,0.0,25.039288,121.612939,0,0,0,0,0,0,0,0,0,0,0,0,0,00000000
0C9A4249DB83,2020-04-09,02:50:00,28.3,51.3,193,379,419,521,0,3,1,65,73,46,58,2,1,65,0.0,0.0,25.039288,121.612939,0,0,0,0,0,0,0,0,0,0,0,0,0,00000000
0C9A4249DB83,2020-04-09,02:50:15,28.3,51.3,191,374,413,521,0,2,1,65,70,50,75,2,1,64,0.0,0.0,25.039288,121.612939,0,0,0,0,0,0,0,0,0,0,0,0,0,00000000
0C9A4249DB83,2020-04-09,02:50:30,28.3,51.3,192,375,407,521,0,2,1,64,75,56,56,3,1,64,0.0,0.0,25.039288,121.612939,0,0,0,0,0,0,0,0,0,0,0,0,0,00000000
0C9A4249DB83,2020-04-09,02:50:45,28.3,51.3,191,377,409,521,0,3,1,64,76,44,61,3,1,65,0.0,0.0,25.039288,121.612939,0,0,0,0,0,0,0,0,0,0,0,0,0,00000000
0C9A4249DB83,2020-04-09,02:51:00,28.3,51.4,191,380,413,520,0,3,1,65,67,67,65,2,2,64,0.0,0.0,25.039288,121.612939,0,0,0,0,0,0,0,0,0,0,0,0,0,00000000
0C9A4249DB83,2020-04-09,02:51:15,28.3,51.3,189,377,410,520,0,2,2,64,57,43,65,3,1,65,0.0,0.0,25.039288,121.612939,0,0,0,0,0,0,0,0,0,0,0,0,0,00000000
0C9A4249DB83,2020-04-09,02:51:30,28.3,51.3,191,377,415,520,0,3,1,65,66,62,86,3,1,65,0.0,0.0,25.039288,121.612939,0,0,0,0,0,0,0,0,0,0,0,0,0,00000000
0C9A4249DB83,2020-04-09,02:51:45,28.3,51.3,191,379,422,519,0,3,1,65,78,66,68,3,1,65,0.0,0.0,25.039288,121.612939,0,0,0,0,0,0,0,0,0,0,0,0,0,00000000
0C9A4249DB83,2020-04-09,02:52:00,28.3,51.3,190,378,420,519,0,3,1,65,72,46,63,3,1,64,0.0,0.0,25.039288,121.612939,0,0,0,0,0,0,0,0,0,0,0,0,0,00000000
0C9A4249DB83,2020-04-09,02:52:15,28.3,51.3,191,383,425,519,0,3,1,64,72,68,66,3,1,64,0.0,0.0,25.039288,121.612939,0,0,0,0,0,0,0,0,0,0,0,0,0,00000000
0C9A4249DB83,2020-04-09,02:52:30,28.3,51.3,192,379,417,520,0,3,1,64,81,57,76,2,2,64,0.0,0.0,25.039288,121.612939,0,0,0,0,0,0,0,0,0,0,0,0,0,00000000
0C9A4249DB83,2020-04-09,02:52:45,28.3,51.3,189,374,410,521,0,2,2,64,74,53,67,2,1,65,0.0,0.0,25.039288,121.612939,0,0,0,0,0,0,0,0,0,0,0,0,0,00000000
0C9A4249DB83,2020-04-09,02:53:00,28.3,51.4,191,375,410,521,0,2,1,65,65,44,62,3,1,65,0.0,0.0,25.039288,121.612939,0,0,0,0,0,0,0,0,0,0,0,0,0,00000000
0C9A4249DB83,2020-04-09,02:53:15,28.3,51.3,191,375,409,521,0,3,1,65,72,45,71,3,2,64,0.0,0.0,25.039288,121.612939,0,0,0,0,0,0,0,0,0,0,0,0,0,00000000
0C9A4249DB83,2020-04-09,02:53:30,28.3,51.3,191,376,414,521,0,3,2,64,66,54,60,3,2,64,0.0,0.0,25.039288,121.612939,0,0,0,0,0,0,0,0,0,0,0,0,0,00000000
0C9A4249DB83,2020-04-09,02:53:45,28.3,51.3,191,378,415,521,0,3,2,64,64,53,62,3,1,64,0.0,0.0,25.039288,121.612939,0,0,0,0,0,0,0,0,0,0,0,0,0,00000000
0C9A4249DB83,2020-04-09,02:54:00,28.3,51.3,191,380,421,521,0,3,1,64,59,54,77,2,1,65,0.0,0.0,25.039288,121.612939,0,0,0,0,0,0,0,0,0,0,0,0,0,00000000
0C9A4249DB83,2020-04-09,02:54:15,28.3,51.3,190,382,421,521,0,2,1,65,59,38,72,3,1,65,0.0,0.0,25.039288,121.612939,0,0,0,0,0,0,0,0,0,0,0,0,0,00000000
0C9A4249DB83,2020-04-09,02:54:30,28.3,51.3,191,379,419,521,0,3,1,65,68,66,65,3,1,64,0.0,0.0,25.039288,121.612939,0,0,0,0,0,0,0,0,0,0,0,0,0,00000000
0C9A4249DB83,2020-04-09,02:54:45,28.3,51.3,193,380,419,520,0,3,1,64,64,46,67,3,1,65,0.0,0.0,25.039288,121.612939,0,0,0,0,0,0,0,0,0,0,0,0,0,00000000
0C9A4249DB83,2020-04-09,02:55:00,28.3,51.3,193,378,415,521,0,3,1,65,66,49,76,3,0,65,0.0,0.0,25.039288,121.612939,0,0,0,0,0,0,0,0,0,0,0,0,0,00000000
0C9A4249DB83,2020-04-09,02:55:15,28.3,51.3,191,379,417,521,0,3,0,65,72,55,78,3,1,65,0.0,0.0,25.039288,121.612939,0,0,0,0,0,0,0,0,0,0,0,0,0,00000000
0C9A4249DB83,2020-04-09,02:55:30,28.3,51.3,188,377,411,521,0,3,1,65,72,54,79,3,1,64,0.0,0.0,25.039288,121.612939,0,0,0,0,0,0,0,0,0,0,0,0,0,00000000
0C9A4249DB83,2020-04-09,02:55:45,28.3,51.3,189,377,413,521,0,3,1,64,64,42,59,3,1,65,0.0,0.0,25.039288,121.612939,0,0,0,0,0,0,0,0,0,0,0,0,0,00000000
0C9A4249DB83,2020-04-09,02:56:00,28.3,51.3,193,383,421,521,0,3,1,65,70,54,64,3,1,65,0.0,0.0,25.039288,121.612939,0,0,0,0,0,0,0,0,0,0,0,0,0,00000000
0C9A4249DB83,2020-04-09,02:56:15,28.3,51.3,190,378,413,521,0,3,1,65,82,62,77,3,1,64,0.0,0.0,25.039288,121.612939,0,0,0,0,0,0,0,0,0,0,0,0,0,00000000
0C9A4249DB83,2020-04-09,02:56:30,28.3,51.3,192,380,415,521,0,3,1,64,78,40,62,3,1,64,0.0,0.0,25.039288,121.612939,0,0,0,0,0,0,0,0,0,0,0,0,0,00000000
0C9A4249DB83,2020-04-09,02:56:45,28.3,51.3,189,372,408,521,0,3,1,64,68,56,64,3,1,64,0.0,0.0,25.039288,121.612939,0,0,0,0,0,0,0,0,0,0,0,0,0,00000000
0C9A4249DB83,2020-04-09,02:57:00,28.3,51.3,189,377,417,521,0,3,1,64,71,41,73,2,2,65,0.0,0.0,25.039288,121.612939,0,0,0,0,0,0,0,0,0,0,0,0,0,00000000
0C9A4249DB83,2020-04-09,02:57:15,28.3,51.3,189,378,418,521,0,2,2,65,77,55,67,3,1,64,0.0,0.0,25.039288,121.612939,0,0,0,0,0,0,0,0,0,0,0,0,0,00000000
0C9A4249DB83,2020-04-09,02:57:30,28.3,51.3,189,376,409,521,0,3,1,64,75,68,60,2,1,64,0.0,0.0,25.039288,121.612939,0,0,0,0,0,0,0,0,0,0,0,0,0,00000000
0C9A4249DB83,2020-04-09,02:57:45,28.3,51.3,189,373,408,521,0,2,1,64,72,51,68,2,2,66,0.0,0.0,25.039288,121.612939,0,0,0,0,0,0,0,0,0,0,0,0,0,00000000
0C9A4249DB83,2020-04-09,02:58:00,28.3,51.3,191,371,403,521,0,2,2,66,63,45,54,3,1,64,0.0,0.0,25.039288,121.612939,0,0,0,0,0,0,0,0,0,0,0,0,0,00000000
0C9A4249DB83,2020-04-09,02:58:15,28.3,51.3,189,369,406,521,0,3,1,64,72,43,56,3,2,64,0.0,0.0,25.039288,121.612939,0,0,0,0,0,0,0,0,0,0,0,0,0,00000000
0C9A4249DB83,2020-04-09,02:58:30,28.3,51.3,188,371,407,521,0,3,2,64,78,64,68,3,2,64,0.0,0.0,25.039288,121.612939,0,0,0,0,0,0,0,0,0,0,0,0,0,00000000
0C9A4249DB83,2020-04-09,02:58:45,28.3,51.3,187,374,413,521,0,3,2,64,68,53,67,3,1,65,0.0,0.0,25.039288,121.612939,0,0,0,0,0,0,0,0,0,0,0,0,0,00000000
0C9A4249DB83,2020-04-09,02:59:00,28.3,51.3,189,377,419,520,0,3,1,65,78,58,67,3,1,64,0.0,0.0,25.039288,121.612939,0,0,0,0,0,0,0,0,0,0,0,0,0,00000000
0C9A4249DB83,2020-04-09,02:59:15,28.3,51.4,192,379,417,520,0,3,1,64,77,52,62,2,1,64,0.0,0.0,25.039288,121.612939,0,0,0,0,0,0,0,0,0,0,0,0,0,00000000
0C9A4249DB83,2020-04-09,02:59:30,28.3,51.3,191,373,413,521,0,2,1,64,78,41,70,2,2,64,0.0,0.0,25.039288,121.612939,0,0,0,0,0,0,0,0,0,0,0,0,0,00000000
0C9A4249DB83,2020-04-09,02:59:45,28.3,51.4,191,375,420,521,0,2,2,64,62,54,60,2,2,64,0.0,0.0,25.039288,121.612939,0,0,0,0,0,0,0,0,0,0,0,0,0,00000000
0C9A4249DB83,2020-04-09,03:00:00,28.3,51.3,189,374,417,521,0,2,2,64,75,59,88,3,1,64,0.0,0.0,25.039288,121.612939,0,0,0,0,0,0,0,0,0,0,0,0,0,00000000
0C9A4249DB83,2020-04-09,03:00:15,28.3,51.3,189,373,413,521,0,3,1,64,80,56,59,3,1,65,0.0,0.0,25.039288,121.612939,0,0,0,0,0,0,0,0,0,0,0,0,0,00000000
0C9A4249DB83,2020-04-09,03:00:30,28.3,51.3,188,373,413,521,0,3,1,65,78,58,65,3,1,64,0.0,0.0,25.039288,121.612939,0,0,0,0,0,0,0,0,0,0,0,0,0,00000000
0C9A4249DB83,2020-04-09,03:00:45,28.3,51.4,189,375,413,521,0,3,1,64,82,44,73,3,1,65,0.0,0.0,25.039288,121.612939,0,0,0,0,0,0,0,0,0,0,0,0,0,00000000
0C9A4249DB83,2020-04-09,03:01:00,28.3,51.3,189,373,417,521,0,3,1,65,82,52,68,3,1,65,0.0,0.0,25.039288,121.612939,0,0,0,0,0,0,0,0,0,0,0,0,0,00000000
0C9A4249DB83,2020-04-09,03:01:15,28.3,51.3,191,373,415,521,0,3,1,65,68,53,71,1,2,64,0.0,0.0,25.039288,121.612939,0,0,0,0,0,0,0,0,0,0,0,0,0,00000000
0C9A4249DB83,2020-04-09,03:01:30,28.3,51.3,191,372,415,521,0,1,2,64,84,55,53,3,1,65,0.0,0.0,25.039288,121.612939,0,0,0,0,0,0,0,0,0,0,0,0,0,00000000
0C9A4249DB83,2020-04-09,03:01:45,28.3,51.3,193,373,409,521,0,3,1,65,66,58,64,3,1,65,0.0,0.0,25.039288,121.612939,0,0,0,0,0,0,0,0,0,0,0,0,0,00000000
0C9A4249DB83,2020-04-09,03:02:00,28.3,51.3,194,374,413,520,0,3,1,65,76,48,57,3,1,64,0.0,0.0,25.039288,121.612939,0,0,0,0,0,0,0,0,0,0,0,0,0,00000000
0C9A4249DB83,2020-04-09,03:02:15,28.3,51.3,191,372,411,520,0,3,1,64,70,55,64,3,0,64,0.0,0.0,25.039288,121.612939,0,0,0,0,0,0,0,0,0,0,0,0,0,00000000
0C9A4249DB83,2020-04-09,03:02:30,28.3,51.3,192,377,418,520,0,3,0,64,74,48,57,3,2,65,0.0,0.0,25.039288,121.612939,0,0,0,0,0,0,0,0,0,0,0,0,0,00000000
0C9A4249DB83,2020-04-09,03:02:45,28.3,51.3,194,375,415,520,0,3,2,65,78,67,72,3,1,65,0.0,0.0,25.039288,121.612939,0,0,0,0,0,0,0,0,0,0,0,0,0,00000000
0C9A4249DB83,2020-04-09,03:03:00,28.3,51.3,189,366,400,520,0,3,1,65,82,50,70,3,1,65,0.0,0.0,25.039288,121.612939,0,0,0,0,0,0,0,0,0,0,0,0,0,00000000
0C9A4249DB83,2020-04-09,03:03:15,28.3,51.3,182,365,397,519,0,3,1,65,56,47,58,3,2,65,0.0,0.0,25.039288,121.612939,0,0,0,0,0,0,0,0,0,0,0,0,0,00000000
0C9A4249DB83,2020-04-09,03:03:30,28.3,51.3,187,372,409,519,0,3,2,65,68,37,61,3,1,64,0.0,0.0,25.039288,121.612939,0,0,0,0,0,0,0,0,0,0,0,0,0,00000000
0C9A4249DB83,2020-04-09,03:03:45,28.3,51.3,189,365,401,519,0,3,1,64,71,54,53,2,1,65,0.0,0.0,25.039288,121.612939,0,0,0,0,0,0,0,0,0,0,0,0,0,00000000
0C9A4249DB83,2020-04-09,03:04:00,28.3,51.4,188,367,402,519,0,2,1,65,67,36,65,3,1,64,0.0,0.0,25.039288,121.612939,0,0,0,0,0,0,0,0,0,0,0,0,0,00000000
0C9A4249DB83,2020-04-09,03:04:15,28.3,51.3,187,366,411,520,0,3,1,64,85,53,74,2,2,64,0.0,0.0,25.039288,121.612939,0,0,0,0,0,0,0,0,0,0,0,0,0,00000000
0C9A4249DB83,2020-04-09,03:04:30,28.3,51.3,185,371,413,520,0,2,2,64,79,37,57,3,1,65,0.0,0.0,25.039288,121.612939,0,0,0,0,0,0,0,0,0,0,0,0,0,00000000
0C9A4249DB83,2020-04-09,03:04:45,28.3,51.4,182,364,407,520,0,3,1,65,75,61,79,2,2,64,0.0,0.0,25.039288,121.612939,0,0,0,0,0,0,0,0,0,0,0,0,0,00000000
0C9A4249DB83,2020-04-09,03:05:00,28.3,51.4,186,369,407,519,0,2,2,64,79,63,69,3,1,65,0.0,0.0,25.039288,121.612939,0,0,0,0,0,0,0,0,0,0,0,0,0,00000000
0C9A4249DB83,2020-04-09,03:05:15,28.3,51.3,187,371,405,519,0,3,1,65,74,50,67,3,1,64,0.0,0.0,25.039288,121.612939,0,0,0,0,0,0,0,0,0,0,0,0,0,00000000
0C9A4249DB83,2020-04-09,03:05:30,28.3,51.4,187,374,407,519,0,3,1,64,80,63,61,3,2,65,0.0,0.0,25.039288,121.612939,0,0,0,0,0,0,0,0,0,0,0,0,0,00000000
0C9A4249DB83,2020-04-09,03:05:45,28.3,51.3,190,376,410,519,0,3,2,65,67,44,54,2,2,65,0.0,0.0,25.039288,121.612939,0,0,0,0,0,0,0,0,0,0,0,0,0,00000000
0C9A4249DB83,2020-04-09,03:06:00,28.3,51.4,187,368,406,519,0,2,2,65,68,58,70,2,2,65,0.0,0.0,25.039288,121.612939,0,0,0,0,0,0,0,0,0,0,0,0,0,00000000
0C9A4249DB83,2020-04-09,03:06:15,28.3,51.4,187,362,400,519,0,2,2,65,69,57,61,3,1,64,0.0,0.0,25.039288,121.612939,0,0,0,0,0,0,0,0,0,0,0,0,0,00000000
0C9A4249DB83,2020-04-09,03:06:30,28.3,51.3,188,365,401,519,0,3,1,64,85,57,82,2,2,64,0.0,0.0,25.039288,121.612939,0,0,0,0,0,0,0,0,0,0,0,0,0,00000000
0C9A4249DB83,2020-04-09,03:06:45,28.3,51.4,189,371,403,519,0,2,2,64,73,49,61,3,1,65,0.0,0.0,25.039288,121.612939,0,0,0,0,0,0,0,0,0,0,0,0,0,00000000
0C9A4249DB83,2020-04-09,03:07:00,28.3,51.3,187,369,401,519,0,3,1,65,62,50,62,3,1,65,0.0,0.0,25.039288,121.612939,0,0,0,0,0,0,0,0,0,0,0,0,0,00000000
0C9A4249DB83,2020-04-09,03:07:15,28.3,51.3,186,369,402,519,0,3,1,65,67,62,68,2,1,65,0.0,0.0,25.039288,121.612939,0,0,0,0,0,0,0,0,0,0,0,0,0,00000000
0C9A4249DB83,2020-04-09,03:07:30,28.3,51.3,185,365,399,519,0,2,1,65,74,49,80,2,2,65,0.0,0.0,25.039288,121.612939,0,0,0,0,0,0,0,0,0,0,0,0,0,00000000
0C9A4249DB83,2020-04-09,03:07:45,28.3,51.3,187,361,398,519,0,2,2,65,55,53,65,3,1,64,0.0,0.0,25.039288,121.612939,0,0,0,0,0,0,0,0,0,0,0,0,0,00000000
0C9A4249DB83,2020-04-09,03:08:00,28.3,51.3,187,362,397,519,0,3,1,64,80,56,57,3,1,65,0.0,0.0,25.039288,121.612939,0,0,0,0,0,0,0,0,0,0,0,0,0,00000000
0C9A4249DB83,2020-04-09,03:08:15,28.3,51.3,186,361,395,519,0,3,1,65,70,46,71,3,1,64,0.0,0.0,25.039288,121.612939,0,0,0,0,0,0,0,0,0,0,0,0,0,00000000
0C9A4249DB83,2020-04-09,03:08:30,28.3,51.3,184,362,393,519,0,3,1,64,66,56,57,3,1,65,0.0,0.0,25.039288,121.612939,0,0,0,0,0,0,0,0,0,0,0,0,0,00000000
0C9A4249DB83,2020-04-09,03:08:45,28.3,51.3,185,366,400,519,0,3,1,65,77,64,76,2,1,65,0.0,0.0,25.039288,121.612939,0,0,0,0,0,0,0,0,0,0,0,0,0,00000000
0C9A4249DB83,2020-04-09,03:09:00,28.3,51.4,185,368,400,519,0,2,1,65,68,53,68,2,2,65,0.0,0.0,25.039288,121.612939,0,0,0,0,0,0,0,0,0,0,0,0,0,00000000
0C9A4249DB83,2020-04-09,03:09:15,28.3,51.4,186,372,410,520,0,2,2,65,59,55,65,3,1,64,0.0,0.0,25.039288,121.612939,0,0,0,0,0,0,0,0,0,0,0,0,0,00000000
0C9A4249DB83,2020-04-09,03:09:30,28.3,51.3,187,365,401,520,0,3,1,64,62,55,54,3,2,64,0.0,0.0,25.039288,121.612939,0,0,0,0,0,0,0,0,0,0,0,0,0,00000000
0C9A4249DB83,2020-04-09,03:09:45,28.3,51.3,188,359,396,520,0,3,2,64,81,50,64,2,2,64,0.0,0.0,25.039288,121.612939,0,0,0,0,0,0,0,0,0,0,0,0,0,00000000
0C9A4249DB83,2020-04-09,03:10:00,28.3,51.4,187,362,397,520,0,2,2,64,77,39,66,3,1,64,0.0,0.0,25.039288,121.612939,0,0,0,0,0,0,0,0,0,0,0,0,0,00000000
0C9A4249DB83,2020-04-09,03:10:15,28.3,51.3,187,364,401,520,0,3,1,64,70,48,69,3,1,65,0.0,0.0,25.039288,121.612939,0,0,0,0,0,0,0,0,0,0,0,0,0,00000000
0C9A4249DB83,2020-04-09,03:10:30,28.3,51.4,184,365,402,520,0,3,1,65,71,51,84,2,2,65,0.0,0.0,25.039288,121.612939,0,0,0,0,0,0,0,0,0,0,0,0,0,00000000
0C9A4249DB83,2020-04-09,03:10:45,28.3,51.4,184,357,396,520,0,2,2,65,68,50,67,2,2,64,0.0,0.0,25.039288,121.612939,0,0,0,0,0,0,0,0,0,0,0,0,0,00000000
0C9A4249DB83,2020-04-09,03:11:00,28.3,51.4,187,359,394,521,0,2,2,64,67,47,66,3,1,64,0.0,0.0,25.039288,121.612939,0,0,0,0,0,0,0,0,0,0,0,0,0,00000000
0C9A4249DB83,2020-04-09,03:11:15,28.3,51.4,187,362,393,521,0,3,1,64,67,59,64,2,2,64,0.0,0.0,25.039288,121.612939,0,0,0,0,0,0,0,0,0,0,0,0,0,00000000
0C9A4249DB83,2020-04-09,03:11:30,28.3,51.4,186,362,392,521,0,2,2,64,66,48,67,2,2,65,0.0,0.0,25.039288,121.612939,0,0,0,0,0,0,0,0,0,0,0,0,0,00000000
0C9A4249DB83,2020-04-09,03:11:45,28.3,51.4,185,359,394,521,0,2,2,65,80,60,62,2,2,65,0.0,0.0,25.039288,121.612939,0,0,0,0,0,0,0,0,0,0,0,0,0,00000000
0C9A4249DB83,2020-04-09,03:12:00,28.3,51.4,185,363,404,521,0,2,2,65,68,58,67,2,2,64,0.0,0.0,25.039288,121.612939,0,0,0,0,0,0,0,0,0,0,0,0,0,00000000
0C9A4249DB83,2020-04-09,03:12:15,28.3,51.4,186,362,405,521,0,2,2,64,72,53,77,2,1,65,0.0,0.0,25.039288,121.612939,0,0,0,0,0,0,0,0,0,0,0,0,0,00000000
0C9A4249DB83,2020-04-09,03:12:30,28.3,51.4,183,362,400,520,0,2,1,65,63,50,53,3,1,64,0.0,0.0,25.039288,121.612939,0,0,0,0,0,0,0,0,0,0,0,0,0,00000000
0C9A4249DB83,2020-04-09,03:12:45,28.3,51.4,185,367,403,520,0,3,1,64,68,48,65,3,1,65,0.0,0.0,25.039288,121.612939,0,0,0,0,0,0,0,0,0,0,0,0,0,00000000
0C9A4249DB83,2020-04-09,03:13:00,28.3,51.4,184,362,396,520,0,3,1,65,84,64,70,3,1,65,0.0,0.0,25.039288,121.612939,0,0,0,0,0,0,0,0,0,0,0,0,0,00000000
0C9A4249DB83,2020-04-09,03:13:15,28.3,51.4,185,365,396,520,0,3,1,65,59,61,71,2,2,64,0.0,0.0,25.039288,121.612939,0,0,0,0,0,0,0,0,0,0,0,0,0,00000000
0C9A4249DB83,2020-04-09,03:13:30,28.3,51.4,184,359,393,521,0,2,2,64,61,61,67,3,1,65,0.0,0.0,25.039288,121.612939,0,0,0,0,0,0,0,0,0,0,0,0,0,00000000
0C9A4249DB83,2020-04-09,03:13:45,28.3,51.4,188,367,404,521,0,3,1,65,70,71,75,3,2,64,0.0,0.0,25.039288,121.612939,0,0,0,0,0,0,0,0,0,0,0,0,0,00000000
0C9A4249DB83,2020-04-09,03:14:00,28.3,51.3,184,355,389,521,0,3,2,64,95,56,68,2,2,64,0.0,0.0,25.039288,121.612939,0,0,0,0,0,0,0,0,0,0,0,0,0,00000000
0C9A4249DB83,2020-04-09,03:14:15,28.3,51.4,184,356,392,521,0,2,2,64,61,47,65,3,1,65,0.0,0.0,25.039288,121.612939,0,0,0,0,0,0,0,0,0,0,0,0,0,00000000
0C9A4249DB83,2020-04-09,03:14:30,28.3,51.3,185,357,393,520,0,3,1,65,71,50,74,2,1,65,0.0,0.0,25.039288,121.612939,0,0,0,0,0,0,0,0,0,0,0,0,0,00000000
0C9A4249DB83,2020-04-09,03:14:45,28.3,51.3,185,357,391,520,0,2,1,65,73,62,64,3,1,65,0.0,0.0,25.039288,121.612939,0,0,0,0,0,0,0,0,0,0,0,0,0,00000000
0C9A4249DB83,2020-04-09,03:15:00,28.3,51.4,185,362,397,520,0,3,1,65,95,62,65,2,1,64,0.0,0.0,25.039288,121.612939,0,0,0,0,0,0,0,0,0,0,0,0,0,00000000
0C9A4249DB83,2020-04-09,03:15:15,28.3,51.4,185,365,399,520,0,2,1,64,82,62,57,2,1,65,0.0,0.0,25.039288,121.612939,0,0,0,0,0,0,0,0,0,0,0,0,0,00000000
0C9A4249DB83,2020-04-09,03:15:30,28.3,51.4,187,365,399,521,0,2,1,65,73,48,59,3,1,64,0.0,0.0,25.039288,121.612939,0,0,0,0,0,0,0,0,0,0,0,0,0,00000000
0C9A4249DB83,2020-04-09,03:15:45,28.3,51.4,185,364,400,521,0,3,1,64,77,50,78,2,1,64,0.0,0.0,25.039288,121.612939,0,0,0,0,0,0,0,0,0,0,0,0,0,00000000
0C9A4249DB83,2020-04-09,03:16:00,28.3,51.3,183,364,399,521,0,2,1,64,69,38,75,3,1,65,0.0,0.0,25.039288,121.612939,0,0,0,0,0,0,0,0,0,0,0,0,0,00000000
0C9A4249DB83,2020-04-09,03:16:15,28.3,51.4,182,365,401,521,0,3,1,65,87,58,71,2,1,64,0.0,0.0,25.039288,121.612939,0,0,0,0,0,0,0,0,0,0,0,0,0,00000000
0C9A4249DB83,2020-04-09,03:16:30,28.3,51.4,183,364,402,521,0,2,1,64,83,58,69,3,1,65,0.0,0.0,25.039288,121.612939,0,0,0,0,0,0,0,0,0,0,0,0,0,00000000
0C9A4249DB83,2020-04-09,03:16:45,28.3,51.4,183,360,396,521,0,3,1,65,80,42,66,3,1,65,0.0,0.0,25.039288,121.612939,0,0,0,0,0,0,0,0,0,0,0,0,0,00000000
0C9A4249DB83,2020-04-09,03:17:00,28.3,51.3,184,357,391,520,0,3,1,65,67,61,62,2,2,65,0.0,0.0,25.039288,121.612939,0,0,0,0,0,0,0,0,0,0,0,0,0,00000000
0C9A4249DB83,2020-04-09,03:17:15,28.3,51.4,185,360,397,520,0,2,2,65,76,58,66,2,2,65,0.0,0.0,25.039288,121.612939,0,0,0,0,0,0,0,0,0,0,0,0,0,00000000
0C9A4249DB83,2020-04-09,03:17:30,28.3,51.4,185,357,393,520,0,2,2,65,69,49,72,3,1,65,0.0,0.0,25.039288,121.612939,0,0,0,0,0,0,0,0,0,0,0,0,0,00000000
0C9A4249DB83,2020-04-09,03:17:45,28.3,51.4,185,358,394,521,0,3,1,65,66,48,77,3,1,64,0.0,0.0,25.039288,121.612939,0,0,0,0,0,0,0,0,0,0,0,0,0,00000000
0C9A4249DB83,2020-04-09,03:18:00,28.3,51.4,184,361,390,520,0,3,1,64,66,50,59,3,1,65,0.0,0.0,25.039288,121.612939,0,0,0,0,0,0,0,0,0,0,0,0,0,00000000
0C9A4249DB83,2020-04-09,03:18:15,28.3,51.4,183,360,390,520,0,3,1,65,68,26,57,3,1,64,0.0,0.0,25.039288,121.612939,0,0,0,0,0,0,0,0,0,0,0,0,0,00000000
0C9A4249DB83,2020-04-09,03:18:30,28.3,51.4,184,361,392,520,0,3,1,64,68,47,66,3,2,64,0.0,0.0,25.039288,121.612939,0,0,0,0,0,0,0,0,0,0,0,0,0,00000000
0C9A4249DB83,2020-04-09,03:18:45,28.3,51.4,184,361,397,520,0,3,2,64,75,53,71,2,1,65,0.0,0.0,25.039288,121.612939,0,0,0,0,0,0,0,0,0,0,0,0,0,00000000
0C9A4249DB83,2020-04-09,03:19:00,28.3,51.4,183,357,394,519,0,2,1,65,86,52,48,2,1,65,0.0,0.0,25.039288,121.612939,0,0,0,0,0,0,0,0,0,0,0,0,0,00000000
0C9A4249DB83,2020-04-09,03:19:15,28.3,51.4,183,356,391,520,0,2,1,65,91,52,62,3,1,65,0.0,0.0,25.039288,121.612939,0,0,0,0,0,0,0,0,0,0,0,0,0,00000000
0C9A4249DB83,2020-04-09,03:19:30,28.3,51.4,182,354,388,520,0,3,1,65,73,64,76,2,1,65,0.0,0.0,25.039288,121.612939,0,0,0,0,0,0,0,0,0,0,0,0,0,00000000
0C9A4249DB83,2020-04-09,03:19:45,28.3,51.4,182,355,388,520,0,2,1,65,69,52,78,3,1,65,0.0,0.0,25.039288,121.612939,0,0,0,0,0,0,0,0,0,0,0,0,0,00000000
0C9A4249DB83,2020-04-09,03:20:00,28.3,51.4,181,354,388,520,0,3,1,65,72,57,76,3,0,65,0.0,0.0,25.039288,121.612939,0,0,0,0,0,0,0,0,0,0,0,0,0,00000000
0C9A4249DB83,2020-04-09,03:20:15,28.3,51.4,181,357,389,519,0,3,0,65,64,37,71,3,1,64,0.0,0.0,25.039288,121.612939,0,0,0,0,0,0,0,0,0,0,0,0,0,00000000
0C9A4249DB83,2020-04-09,03:20:30,28.3,51.4,181,360,396,519,0,3,1,64,73,58,72,4,1,64,0.0,0.0,25.039288,121.612939,0,0,0,0,0,0,0,0,0,0,0,0,0,00000000
