id,date,time,sht_t,sht_h,pm1,pm25,pm10,co2,adc,acc_x,acc_y,acc_z,accx_int,accy_int,accz_int,accx_i,accy_i,accz_i,sht_t_ext,sht_h_ext,gps_lat,gps_lon,gps_alt,gps_speed,gps_dir,gps_fix,pressure,ai1_1,ai1_2,ai1_3,ai1_4,ai2_1,ai2_2,ai2_3,ai2_4,ERR
0C9A4249DB69,2020-04-10,00:00:00,30.0,51.0,7,9,9,490,0,-3,0,58,73,76,82,-2,0,58,0.0,0.0,25.039288,121.612939,0,0,0,0,0,0,0,0,0,0,0,0,0,00000000
0C9A4249DB69,2020-04-10,00:00:15,30.0,51.0,6,9,9,490,0,-2,0,58,87,71,94,-3,-1,58,0.0,0.0,25.039288,121.612939,0,0,0,0,0,0,0,0,0,0,0,0,0,00000000
0C9A4249DB69,2020-04-10,00:00:30,30.0,51.0,7,10,10,491,0,-3,-1,58,68,66,82,-3,-1,58,0.0,0.0,25.039288,121.612939,0,0,0,0,0,0,0,0,0,0,0,0,0,00000000
0C9A4249DB69,2020-04-10,00:00:45,30.0,51.0,6,10,10,491,0,-3,-1,58,106,92,97,-1,1,59,0.0,0.0,25.039288,121.612939,0,0,0,0,0,0,0,0,0,0,0,0,0,00000000
0C9A4249DB69,2020-04-10,00:01:00,30.0,51.0,6,10,10,491,0,-1,1,59,93,72,83,-2,-1,58,0.0,0.0,25.039288,121.612939,0,0,0,0,0,0,0,0,0,0,0,0,0,00000000
0C9A4249DB69,2020-04-10,00:01:15,30.0,51.0,6,10,11,491,0,-2,-1,58,81,63,82,-3,0,58,0.0,0.0,25.039288,121.612939,0,0,0,0,0,0,0,0,0,0,0,0,0,00000000
0C9A4249DB69,2020-04-10,00:01:30,30.0,51.0,7,10,10,492,0,-3,0,58,76,65,81,-3,-1,57,0.0,0.0,25.039288,121.612939,0,0,0,0,0,0,0,0,0,0,0,0,0,00000000
0C9A4249DB69,2020-04-10,00:01:45,30.0,50.9,6,9,10,491,0,-3,-1,57,93,90,109,-2,-1,58,0.0,0.0,25.039288,121.612939,0,0,0,0,0,0,0,0,0,0,0,0,0,00000000
0C9A4249DB69,2020-04-10,00:02:00,30.0,50.9,6,9,9,492,0,-2,-1,58,73,71,82,-3,0,58,0.0,0.0,25.039288,121.612939,0,0,0,0,0,0,0,0,0,0,0,0,0,00000000
0C9A4249DB69,2020-04-10,00:02:15,30.0,50.9,6,10,10,492,0,-3,0,58,64,58,88,-3,0,58,0.0,0.0,25.039288,121.612939,0,0,0,0,0,0,0,0,0,0,0,0,0,00000000
0C9A4249DB69,2020-04-10,00:02:30,30.0,51.0,6,10,10,492,0,-3,0,58,74,63,91,-3,-1,57,0.0,0.0,25.039288,121.612939,0,0,0,0,0,0,0,0,0,0,0,0,0,00000000
0C9A4249DB69,2020-04-10,00:02:45,30.0,51.0,6,9,9,492,0,-3,-1,57,96,64,91,-3,-1,58,0.0,0.0,25.039288,121.612939,0,0,0,0,0,0,0,0,0,0,0,0,0,00000000
0C9A4249DB69,2020-04-10,00:03:00,30.0,50.9,6,9,10,492,0,-3,-1,58,74,52,76,-3,-1,58,0.0,0.0,25.039288,121.612939,0,0,0,0,0,0,0,0,0,0,0,0,0,00000000
0C9A4249DB69,2020-04-10,00:03:15,30.0,51.0,6,10,10,491,0,-3,-1,58,87,76,105,-2,-1,57,0.0,0.0,25.039288,121.612939,0,0,0,0,0,0,0,0,0,0,0,0,0,00000000
0C9A4249DB69,2020-04-10,00:03:30,30.0,51.0,7,10,11,491,0,-2,-1,57,66,64,90,-2,-1,57,0.0,0.0,25.039288,121.612939,0,0,0,0,0,0,0,0,0,0,0,0,0,00000000
0C9A4249DB69,2020-04-10,00:03:45,30.0,50.9,7,11,12,490,0,-2,-1,57,91,78,98,-3,-1,57,0.0,0.0,25.039288,121.612939,0,0,0,0,0,0,0,0,0,0,0,0,0,00000000
0C9A4249DB69,2020-04-10,00:04:00,30.0,51.0,7,10,11,490,0,-3,-1,57,76,72,72,-3,-1,57,0.0,0.0,25.039288,121.612939,0,0,0,0,0,0,0,0,0,0,0,0,0,00000000
0C9A4249DB69,2020-04-10,00:04:15,30.0,51.0,7,10,10,490,0,-3,-1,57,90,76,85,-3,-1,58,0.0,0.0,25.039288,121.612939,0,0,0,0,0,0,0,0,0,0,0,0,0,00000000
0C9A4249DB69,2020-04-10,00:04:30,30.0,50.9,7,10,10,490,0,-3,-1,58,88,74,83,-3,-1,57,0.0,0.0,25.039288,121.612939,0,0,0,0,0,0,0,0,0,0,0,0,0,00000000
0C9A4249DB69,2020-04-10,00:04:45,30.0,50.9,7,10,11,490,0,-3,-1,57,62,74,76,-3,-1,57,0.0,0.0,25.039288,121.612939,0,0,0,0,0,0,0,0,0,0,0,0,0,00000000
0C9A4249DB69,2020-04-10,00:05:00,30.0,50.9,7,11,12,489,0,-3,-1,57,84,86,99,-3,-1,58,0.0,0.0,25.039288,121.612939,0,0,0,0,0,0,0,0,0,0,0,0,0,00000000
0C9A4249DB69,2020-04-10,00:05:15,30.0,51.0,6,10,12,489,0,-3,-1,58,97,79,78,-2,0,58,0.0,0.0,25.039288,121.612939,0,0,0,0,0,0,0,0,0,0,0,0,0,00000000
0C9A4249DB69,2020-04-10,00:05:30,30.0,51.0,6,11,12,488,0,-2,0,58,81,67,78,-3,-1,58,0.0,0.0,25.039288,121.612939,0,0,0,0,0,0,0,0,0,0,0,0,0,00000000
0C9A4249DB69,2020-04-10,00:05:45,30.0,51.0,6,10,11,490,0,-3,-1,58,88,95,104,-3,0,58,0.0,0.0,25.039288,121.612939,0,0,0,0,0,0,0,0,0,0,0,0,0,00000000
0C9A4249DB69,2020-04-10,00:06:00,30.0,51.0,7,11,11,490,0,-3,0,58,64,59,78,-3,-1,58,0.0,0.0,25.039288,121.612939,0,0,0,0,0,0,0,0,0,0,0,0,0,00000000
0C9A4249DB69,2020-04-10,00:06:15,30.0,51.0,6,10,10,489,0,-3,-1,58,77,78,76,-2,-1,58,0.0,0.0,25.039288,121.612939,0,0,0,0,0,0,0,0,0,0,0,0,0,00000000
0C9A4249DB69,2020-04-10,00:06:30,30.0,51.0,6,9,10,490,0,-2,-1,58,82,65,71,-2,0,57,0.0,0.0,25.039288,121.612939,0,0,0,0,0,0,0,0,0,0,0,0,0,00000000
0C9A4249DB69,2020-04-10,00:06:45,30.0,51.0,6,11,11,491,0,-2,0,57,61,72,79,-3,0,58,0.0,0.0,25.039288,121.612939,0,0,0,0,0,0,0,0,0,0,0,0,0,00000000
0C9A4249DB69,2020-04-10,00:07:00,30.0,51.0,7,11,11,490,0,-3,0,58,76,78,74,-3,0,58,0.0,0.0,25.039288,121.612939,0,0,0,0,0,0,0,0,0,0,0,0,0,00000000
0C9A4249DB69,2020-04-10,00:07:15,30.0,50.9,6,10,11,490,0,-3,0,58,68,69,95,-3,-1,57,0.0,0.0,25.039288,121.612939,0,0,0,0,0,0,0,0,0,0,0,0,0,00000000
0C9A4249DB69,2020-04-10,00:07:30,30.0,51.0,7,11,11,491,0,-3,-1,57,69,76,94,-2,-1,57,0.0,0.0,25.039288,121.612939,0,0,0,0,0,0,0,0,0,0,0,0,0,00000000
0C9A4249DB69,2020-04-10,00:07:45,30.0,51.0,7,10,10,491,0,-2,-1,57,63,76,92,-3,-1,57,0.0,0.0,25.039288,121.612939,0,0,0,0,0,0,0,0,0,0,0,0,0,00000000
0C9A4249DB69,2020-04-10,00:08:00,30.0,51.0,7,10,10,490,0,-3,-1,57,78,72,78,-3,-1,57,0.0,0.0,25.039288,121.612939,0,0,0,0,0,0,0,0,0,0,0,0,0,00000000
0C9A4249DB69,2020-04-10,00:08:15,30.0,51.0,7,10,11,490,0,-3,-1,57,58,60,77,-3,-1,58,0.0,0.0,25.039288,121.612939,0,0,0,0,0,0,0,0,0,0,0,0,0,00000000
0C9A4249DB69,2020-04-10,00:08:30,30.0,51.0,7,11,11,490,0,-3,-1,58,64,66,82,-3,-1,58,0.0,0.0,25.039288,121.612939,0,0,0,0,0,0,0,0,0,0,0,0,0,00000000
0C9A4249DB69,2020-04-10,00:08:45,30.0,51.0,6,9,10,489,0,-3,-1,58,53,69,77,-2,0,57,0.0,0.0,25.039288,121.612939,0,0,0,0,0,0,0,0,0,0,0,0,0,00000000
0C9A4249DB69,2020-04-10,00:09:00,30.0,51.0,7,10,11,488,0,-2,0,57,69,69,74,-3,-1,57,0.0,0.0,25.039288,121.612939,0,0,0,0,0,0,0,0,0,0,0,0,0,00000000
0C9A4249DB69,2020-04-10,00:09:15,30.0,51.0,6,10,10,490,0,-3,-1,57,83,68,90,-2,-1,57,0.0,0.0,25.039288,121.612939,0,0,0,0,0,0,0,0,0,0,0,0,0,00000000
0C9A4249DB69,2020-04-10,00:09:30,30.0,51.0,6,9,10,490,0,-2,-1,57,62,68,74,-2,-1,57,0.0,0.0,25.039288,121.612939,0,0,0,0,0,0,0,0,0,0,0,0,0,00000000
0C9A4249DB69,2020-04-10,00:09:45,30.0,51.0,6,8,9,491,0,-2,-1,57,67,68,92,-3,-1,57,0.0,0.0,25.039288,121.612939,0,0,0,0,0,0,0,0,0,0,0,0,0,00000000
0C9A4249DB69,2020-04-10,00:10:00,30.0,51.0,7,9,10,489,0,-3,-1,57,72,74,85,-3,-1,58,0.0,0.0,25.039288,121.612939,0,0,0,0,0,0,0,0,0,0,0,0,0,00000000
0C9A4249DB69,2020-04-10,00:10:15,30.0,51.0,6,9,9,489,0,-3,-1,58,80,54,93,-3,-1,57,0.0,0.0,25.039288,121.612939,0,0,0,0,0,0,0,0,0,0,0,0,0,00000000
0C9A4249DB69,2020-04-10,00:10:30,30.0,51.0,8,11,11,487,0,-3,-1,57,63,79,88,-2,0,57,0.0,0.0,25.039288,121.612939,0,0,0,0,0,0,0,0,0,0,0,0,0,00000000
0C9A4249DB69,2020-04-10,00:10:45,30.0,51.1,8,10,11,488,0,-2,0,57,95,86,89,-3,0,58,0.0,0.0,25.039288,121.612939,0,0,0,0,0,0,0,0,0,0,0,0,0,00000000
0C9A4249DB69,2020-04-10,00:11:00,30.0,51.0,6,9,9,489,0,-3,0,58,75,64,95,-2,0,57,0.0,0.0,25.039288,121.612939,0,0,0,0,0,0,0,0,0,0,0,0,0,00000000
0C9A4249DB69,2020-04-10,00:11:15,30.0,51.0,7,11,11,488,0,-2,0,57,91,77,92,-3,-1,57,0.0,0.0,25.039288,121.612939,0,0,0,0,0,0,0,0,0,0,0,0,0,00000000
0C9A4249DB69,2020-04-10,00:11:30,30.0,51.1,6,10,10,488,0,-3,-1,57,65,78,83,-2,-1,58,0.0,0.0,25.039288,121.612939,0,0,0,0,0,0,0,0,0,0,0,0,0,00000000
0C9A4249DB69,2020-04-10,00:11:45,30.0,51.0,6,9,9,488,0,-2,-1,58,88,82,92,-2,-1,58,0.0,0.0,25.039288,121.612939,0,0,0,0,0,0,0,0,0,0,0,0,0,00000000
0C9A4249DB69,2020-04-10,00:12:00,30.0,51.0,7,10,10,489,0,-2,-1,58,77,84,88,-3,-1,58,0.0,0.0,25.039288,121.612939,0,0,0,0,0,0,0,0,0,0,0,0,0,00000000
0C9A4249DB69,2020-04-10,00:12:15,30.0,51.0,6,9,9,489,0,-3,-1,58,77,83,82,-4,-2,56,0.0,0.0,25.039288,121.612939,0,0,0,0,0,0,0,0,0,0,0,0,0,00000000
0C9A4249DB69,2020-04-10,00:12:30,30.0,51.0,7,10,11,490,0,-4,-2,56,69,65,69,-3,-1,57,0.0,0.0,25.039288,121.612939,0,0,0,0,0,0,0,0,0,0,0,0,0,00000000
0C9A4249DB69,2020-04-10,00:12:45,30.0,51.1,7,9,10,490,0,-3,-1,57,80,68,78,-3,-1,57,0.0,0.0,25.039288,121.612939,0,0,0,0,0,0,0,0,0,0,0,0,0,00000000
0C9A4249DB69,2020-04-10,00:13:00,30.0,51.1,6,8,9,488,0,-3,-1,57,74,75,95,-3,0,58,0.0,0.0,25.039288,121.612939,0,0,0,0,0,0,0,0,0,0,0,0,0,00000000
0C9A4249DB69,2020-04-10,00:13:15,30.0,51.0,7,9,10,488,0,-3,0,58,80,73,88,-3,-1,58,0.0,0.0,25.039288,121.612939,0,0,0,0,0,0,0,0,0,0,0,0,0,00000000
0C9A4249DB69,2020-04-10,00:13:30,30.0,51.1,7,10,10,488,0,-3,-1,58,85,65,72,-2,0,58,0.0,0.0,25.039288,121.612939,0,0,0,0,0,0,0,0,0,0,0,0,0,00000000
0C9A4249DB69,2020-04-10,00:13:45,30.0,51.0,7,10,11,488,0,-2,0,58,74,68,83,-2,0,57,0.0,0.0,25.039288,121.612939,0,0,0,0,0,0,0,0,0,0,0,0,0,00000000
0C9A4249DB69,2020-04-10,00:14:00,30.0,51.0,6,10,10,488,0,-2,0,57,91,69,80,-3,-1,57,0.0,0.0,25.039288,121.612939,0,0,0,0,0,0,0,0,0,0,0,0,0,00000000
0C9A4249DB69,2020-04-10,00:14:15,30.0,51.0,6,10,10,488,0,-3,-1,57,78,78,94,-3,-1,57,0.0,0.0,25.039288,121.612939,0,0,0,0,0,0,0,0,0,0,0,0,0,00000000
0C9A4249DB69,2020-04-10,00:14:30,30.0,51.1,6,10,10,489,0,-3,-1,57,68,64,82,-3,-1,57,0.0,0.0,25.039288,121.612939,0,0,0,0,0,0,0,0,0,0,0,0,0,00000000
0C9A4249DB69,2020-04-10,00:14:45,30.0,51.0,7,9,10,490,0,-3,-1,57,57,63,81,-2,0,58,0.0,0.0,25.039288,121.612939,0,0,0,0,0,0,0,0,0,0,0,0,0,00000000
0C9A4249DB69,2020-04-10,00:15:00,29.9,51.1,7,10,11,490,0,-2,0,58,77,63,79,-3,-1,57,0.0,0.0,25.039288,121.612939,0,0,0,0,0,0,0,0,0,0,0,0,0,00000000
0C9A4249DB69,2020-04-10,00:15:15,30.0,51.1,6,9,10,491,0,-3,-1,57,80,74,99,-3,-1,58,0.0,0.0,25.039288,121.612939,0,0,0,0,0,0,0,0,0,0,0,0,0,00000000
0C9A4249DB69,2020-04-10,00:15:30,30.0,51.0,5,9,9,491,0,-3,-1,58,89,65,86,-2,0,58,0.0,0.0,25.039288,121.612939,0,0,0,0,0,0,0,0,0,0,0,0,0,00000000
0C9A4249DB69,2020-04-10,00:15:45,30.0,51.1,6,9,10,490,0,-2,0,58,79,77,87,-3,-1,57,0.0,0.0,25.039288,121.612939,0,0,0,0,0,0,0,0,0,0,0,0,0,00000000
0C9A4249DB69,2020-04-10,00:16:00,30.0,51.1,5,8,9,489,0,-3,-1,57,54,48,72,-3,-1,57,0.0,0.0,25.039288,121.612939,0,0,0,0,0,0,0,0,0,0,0,0,0,00000000
0C9A4249DB69,2020-04-10,00:16:15,30.0,51.1,5,8,9,489,0,-3,-1,57,70,74,80,-3,-1,57,0.0,0.0,25.039288,121.612939,0,0,0,0,0,0,0,0,0,0,0,0,0,00000000
0C9A4249DB69,2020-04-10,00:16:30,30.0,51.1,6,9,10,490,0,-3,-1,57,74,80,74,-3,-1,57,0.0,0.0,25.039288,121.612939,0,0,0,0,0,0,0,0,0,0,0,0,0,00000000
0C9A4249DB69,2020-04-10,00:16:45,29.9,51.0,6,10,10,491,0,-3,-1,57,64,73,76,-3,0,57,0.0,0.0,25.039288,121.612939,0,0,0,0,0,0,0,0,0,0,0,0,0,00000000
0C9A4249DB69,2020-04-10,00:17:00,30.0,51.1,5,9,9,491,0,-3,0,57,81,82,93,-2,0,58,0.0,0.0,25.039288,121.612939,0,0,0,0,0,0,0,0,0,0,0,0,0,00000000
0C9A4249DB69,2020-04-10,00:17:15,30.0,51.1,6,10,10,491,0,-2,0,58,67,63,78,-3,-1,58,0.0,0.0,25.039288,121.612939,0,0,0,0,0,0,0,0,0,0,0,0,0,00000000
0C9A4249DB69,2020-04-10,00:17:30,30.0,51.1,6,9,9,490,0,-3,-1,58,65,54,88,-2,-1,58,0.0,0.0,25.039288,121.612939,0,0,0,0,0,0,0,0,0,0,0,0,0,00000000
0C9A4249DB69,2020-04-10,00:17:45,29.9,51.1,6,9,9,491,0,-2,-1,58,66,52,82,-2,-1,58,0.0,0.0,25.039288,121.612939,0,0,0,0,0,0,0,0,0,0,0,0,0,00000000
0C9A4249DB69,2020-04-10,00:18:00,29.9,51.1,7,9,9,492,0,-2,-1,58,72,67,81,-2,0,57,0.0,0.0,25.039288,121.612939,0,0,0,0,0,0,0,0,0,0,0,0,0,00000000
0C9A4249DB69,2020-04-10,00:18:15,29.9,51.1,5,9,9,492,0,-2,0,57,63,43,79,-3,-1,58,0.0,0.0,25.039288,121.612939,0,0,0,0,0,0,0,0,0,0,0,0,0,00000000
0C9A4249DB69,2020-04-10,00:18:30,29.9,51.1,7,10,10,491,0,-3,-1,58,78,78,93,-3,-1,57,0.0,0.0,25.039288,121.612939,0,0,0,0,0,0,0,0,0,0,0,0,0,00000000
0C9A4249DB69,2020-04-10,00:18:45,29.9,51.1,6,10,10,491,0,-3,-1,57,80,76,91,-3,-1,58,0.0,0.0,25.039288,121.612939,0,0,0,0,0,0,0,0,0,0,0,0,0,00000000
0C9A4249DB69,2020-04-10,00:19:00,29.9,51.1,6,10,11,490,0,-3,-1,58,73,83,70,-2,0,58,0.0,0.0,25.039288,121.612939,0,0,0,0,0,0,0,0,0,0,0,0,0,00000000
0C9A4249DB69,2020-04-10,00:19:15,29.9,51.1,6,10,11,490,0,-2,0,58,73,77,93,-3,-1,57,0.0,0.0,25.039288,121.612939,0,0,0,0,0,0,0,0,0,0,0,0,0,00000000
0C9A4249DB69,2020-04-10,00:19:30,29.9,51.1,6,10,11,490,0,-3,-1,57,79,74,85,-2,-1,58,0.0,0.0,25.039288,121.612939,0,0,0,0,0,0,0,0,0,0,0,0,0,00000000
0C9A4249DB69,2020-04-10,00:19:45,30.0,51.1,7,11,12,490,0,-2,-1,58,58,70,73,-4,-1,57,0.0,0.0,25.039288,121.612939,0,0,0,0,0,0,0,0,0,0,0,0,0,00000000
0C9A4249DB69,2020-04-10,00:20:00,29.9,51.1,8,11,11,490,0,-4,-1,57,75,82,92,-3,-1,57,0.0,0.0,25.039288,121.612939,0,0,0,0,0,0,0,0,0,0,0,0,0,00000000
0C9A4249DB69,2020-04-10,00:20:15,29.9,51.1,7,10,10,490,0,-3,-1,57,68,72,76,-3,-1,57,0.0,0.0,25.039288,121.612939,0,0,0,0,0,0,0,0,0,0,0,0,0,00000000
0C9A4249DB69,2020-04-10,00:20:30,29.9,51.1,6,9,10,490,0,-3,-1,57,88,70,84,-3,-1,57,0.0,0.0,25.039288,121.612939,0,0,0,0,0,0,0,0,0,0,0,0,0,00000000
0C9A4249DB69,2020-04-10,00:20:45,29.9,51.1,6,9,9,490,0,-3,-1,57,70,56,70,-3,-1,57,0.0,0.0,25.039288,121.612939,0,0,0,0,0,0,0,0,0,0,0,0,0,00000000
0C9A4249DB69,2020-04-10,00:21:00,30.0,51.1,6,9,9,490,0,-3,-1,57,70,71,75,-3,0,58,0.0,0.0,25.039288,121.612939,0,0,0,0,0,0,0,0,0,0,0,0,0,00000000
0C9A4249DB69,2020-04-10,00:21:15,29.9,51.1,6,9,10,490,0,-3,0,58,72,63,77,-3,-1,57,0.0,0.0,25.039288,121.612939,0,0,0,0,0,0,0,0,0,0,0,0,0,00000000
0C9A4249DB69,2020-04-10,00:21:30,29.9,51.1,5,8,9,490,0,-3,-1,57,76,72,86,-3,-1,57,0.0,0.0,25.039288,121.612939,0,0,0,0,0,0,0,0,0,0,0,0,0,00000000
0C9A4249DB69,2020-04-10,00:21:45,29.9,51.1,5,9,9,490,0,-3,-1,57,82,78,93,-3,-1,58,0.0,0.0,25.039288,121.612939,0,0,0,0,0,0,0,0,0,0,0,0,0,00000000
0C9A4249DB69,2020-04-10,00:22:00,29.9,51.1,6,10,11,490,0,-3,-1,58,67,74,89,-2,-1,57,0.0,0.0,25.039288,121.612939,0,0,0,0,0,0,0,0,0,0,0,0,0,00000000
0C9A4249DB69,2020-04-10,00:22:15,29.9,51.1,6,10,10,490,0,-2,-1,57,63,68,87,-3,-1,58,0.0,0.0,25.039288,121.612939,0,0,0,0,0,0,0,0,0,0,0,0,0,00000000
0C9A4249DB69,2020-04-10,00:22:30,29.9,51.1,6,10,11,490,0,-3,-1,58,84,78,92,-3,-1,58,0.0,0.0,25.039288,121.612939,0,0,0,0,0,0,0,0,0,0,0,0,0,00000000
0C9A4249DB69,2020-04-10,00:22:45,29.9,51.1,5,10,10,490,0,-3,-1,58,72,64,68,-3,-1,58,0.0,0.0,25.039288,121.612939,0,0,0,0,0,0,0,0,0,0,0,0,0,00000000
0C9A4249DB69,2020-04-10,00:23:00,29.9,51.1,7,12,12,490,0,-3,-1,58,81,77,90,-2,0,58,0.0,0.0,25.039288,121.612939,0,0,0,0,0,0,0,0,0,0,0,0,0,00000000
0C9A4249DB69,2020-04-10,00:23:15,29.9,51.1,7,11,11,489,0,-2,0,58,85,98,99,-3,-2,57,0.0,0.0,25.039288,121.612939,0,0,0,0,0,0,0,0,0,0,0,0,0,00000000
0C9A4249DB69,2020-04-10,00:23:30,29.9,51.1,7,10,11,489,0,-3,-2,57,73,71,89,-2,-1,58,0.0,0.0,25.039288,121.612939,0,0,0,0,0,0,0,0,0,0,0,0,0,00000000
0C9A4249DB69,2020-04-10,00:23:45,29.9,51.1,7,9,9,488,0,-2,-1,58,71,64,87,-3,-1,57,0.0,0.0,25.039288,121.612939,0,0,0,0,0,0,0,0,0,0,0,0,0,00000000
0C9A4249DB69,2020-04-10,00:24:00,29.9,51.1,6,9,9,488,0,-3,-1,57,77,63,81,-2,0,58,0.0,0.0,25.039288,121.612939,0,0,0,0,0,0,0,0,0,0,0,0,0,00000000
0C9A4249DB69,2020-04-10,00:24:15,29.9,51.1,6,9,9,488,0,-2,0,58,55,70,78,-3,0,58,0.0,0.0,25.039288,121.612939,0,0,0,0,0,0,0,0,0,0,0,0,0,00000000
0C9A4249DB69,2020-04-10,00:24:30,29.9,51.1,6,9,9,488,0,-3,0,58,74,75,83,-3,-1,57,0.0,0.0,25.039288,121.612939,0,0,0,0,0,0,0,0,0,0,0,0,0,00000000
0C9A4249DB69,2020-04-10,00:24:45,29.9,51.1,6,9,9,489,0,-3,-1,57,76,70,96,-3,-1,57,0.0,0.0,25.039288,121.612939,0,0,0,0,0,0,0,0,0,0,0,0,0,00000000
0C9A4249DB69,2020-04-10,00:25:00,29.9,51.2,7,10,10,488,0,-3,-1,57,93,79,89,-2,0,58,0.0,0.0,25.039288,121.612939,0,0,0,0,0,0,0,0,0,0,0,0,0,00000000
0C9A4249DB69,2020-04-10,00:25:15,29.9,51.1,6,9,9,488,0,-2,0,58,74,65,76,-2,-1,58,0.0,0.0,25.039288,121.612939,0,0,0,0,0,0,0,0,0,0,0,0,0,00000000
0C9A4249DB69,2020-04-10,00:25:30,29.9,51.1,6,9,9,487,0,-2,-1,58,70,59,95,-2,0,57,0.0,0.0,25.039288,121.612939,0,0,0,0,0,0,0,0,0,0,0,0,0,00000000
0C9A4249DB69,2020-04-10,00:25:45,29.9,51.2,7,10,10,487,0,-2,0,57,71,71,77,-3,-1,58,0.0,0.0,25.039288,121.612939,0,0,0,0,0,0,0,0,0,0,0,0,0,00000000
0C9A4249DB69,2020-04-10,00:26:00,29.9,51.1,6,9,10,489,0,-3,-1,58,80,84,95,-3,-1,57,0.0,0.0,25.039288,121.612939,0,0,0,0,0,0,0,0,0,0,0,0,0,00000000
0C9A4249DB69,2020-04-10,00:26:15,29.9,51.1,6,9,9,489,0,-3,-1,57,74,65,74,-3,0,57,0.0,0.0,25.039288,121.612939,0,0,0,0,0,0,0,0,0,0,0,0,0,00000000
0C9A4249DB69,2020-04-10,00:26:30,29.9,51.1,6,9,9,488,0,-3,0,57,76,79,81,-3,-1,58,0.0,0.0,25.039288,121.612939,0,0,0,0,0,0,0,0,0,0,0,0,0,00000000
0C9A4249DB69,2020-04-10,00:26:45,29.9,51.2,6,9,10,489,0,-3,-1,58,86,86,77,-3,-1,57,0.0,0.0,25.039288,121.612939,0,0,0,0,0,0,0,0,0,0,0,0,0,00000000
0C9A4249DB69,2020-04-10,00:27:00,29.9,51.1,6,9,10,489,0,-3,-1,57,74,58,76,-3,-1,57,0.0,0.0,25.039288,121.612939,0,0,0,0,0,0,0,0,0,0,0,0,0,00000000
0C9A4249DB69,2020-04-10,00:27:15,30.0,51.2,6,9,10,489,0,-3,-1,57,85,71,89,-4,-2,56,0.0,0.0,25.039288,121.612939,0,0,0,0,0,0,0,0,0,0,0,0,0,00000000
0C9A4249DB69,2020-04-10,00:27:30,30.0,51.1,6,10,10,489,0,-4,-2,56,91,77,85,-3,-1,57,0.0,0.0,25.039288,121.612939,0,0,0,0,0,0,0,0,0,0,0,0,0,00000000
0C9A4249DB69,2020-04-10,00:27:45,29.9,51.1,7,9,10,489,0,-3,-1,57,58,63,87,-3,0,58,0.0,0.0,25.039288,121.612939,0,0,0,0,0,0,0,0,0,0,0,0,0,00000000
0C9A4249DB69,2020-04-10,00:28:00,29.9,51.2,7,9,10,489,0,-3,0,58,88,79,85,-3,-1,57,0.0,0.0,25.039288,121.612939,0,0,0,0,0,0,0,0,0,0,0,0,0,00000000
0C9A4249DB69,2020-04-10,00:28:15,29.9,51.2,6,10,10,490,0,-3,-1,57,65,63,76,-2,0,57,0.0,0.0,25.039288,121.612939,0,0,0,0,0,0,0,0,0,0,0,0,0,00000000
0C9A4249DB69,2020-04-10,00:28:30,29.9,51.1,6,10,11,490,0,-2,0,57,62,61,77,-2,-1,58,0.0,0.0,25.039288,121.612939,0,0,0,0,0,0,0,0,0,0,0,0,0,00000000
0C9A4249DB69,2020-04-10,00:28:45,30.0,51.2,6,11,11,490,0,-2,-1,58,84,74,86,-2,-1,58,0.0,0.0,25.039288,121.612939,0,0,0,0,0,0,0,0,0,0,0,0,0,00000000
0C9A4249DB69,2020-04-10,00:29:00,29.9,51.2,6,10,11,490,0,-2,-1,58,67,72,77,-3,-1,57,0.0,0.0,25.039288,121.612939,0,0,0,0,0,0,0,0,0,0,0,0,0,00000000
0C9A4249DB69,2020-04-10,00:29:15,29.9,51.1,6,9,9,490,0,-3,-1,57,70,60,78,-3,-1,57,0.0,0.0,25.039288,121.612939,0,0,0,0,0,0,0,0,0,0,0,0,0,00000000
0C9A4249DB69,2020-04-10,00:29:30,29.9,51.2,7,10,10,490,0,-3,-1,57,76,68,75,-3,-1,58,0.0,0.0,25.039288,121.612939,0,0,0,0,0,0,0,0,0,0,0,0,0,00000000
0C9A4249DB69,2020-04-10,00:29:45,29.9,51.1,6,9,9,489,0,-3,-1,58,64,72,58,-3,-1,58,0.0,0.0,25.039288,121.612939,0,0,0,0,0,0,0,0,0,0,0,0,0,00000000
0C9A4249DB69,2020-04-10,00:30:00,29.9,51.1,5,9,9,489,0,-3,-1,58,81,63,82,-2,0,58,0.0,0.0,25.039288,121.612939,0,0,0,0,0,0,0,0,0,0,0,0,0,00000000
0C9A4249DB69,2020-04-10,00:30:15,29.9,51.1,6,10,10,489,0,-2,0,58,82,84,96,-2,0,56,0.0,0.0,25.039288,121.612939,0,0,0,0,0,0,0,0,0,0,0,0,0,00000000
0C9A4249DB69,2020-04-10,00:30:30,29.9,51.1,5,8,8,489,0,-2,0,56,67,66,74,-3,0,58,0.0,0.0,25.039288,121.612939,0,0,0,0,0,0,0,0,0,0,0,0,0,00000000
0C9A4249DB69,2020-04-10,00:30:45,29.9,51.2,6,9,10,487,0,-3,0,58,78,73,94,-3,-1,58,0.0,0.0,25.039288,121.612939,0,0,0,0,0,0,0,0,0,0,0,0,0,00000000
0C9A4249DB69,2020-04-10,00:31:00,29.9,51.2,6,9,10,487,0,-3,-1,58,88,83,89,-3,0,57,0.0,0.0,25.039288,121.612939,0,0,0,0,0,0,0,0,0,0,0,0,0,00000000
0C9A4249DB69,2020-04-10,00:31:15,29.9,51.2,5,9,10,488,0,-3,0,57,79,71,83,-2,-1,58,0.0,0.0,25.039288,121.612939,0,0,0,0,0,0,0,0,0,0,0,0,0,00000000
0C9A4249DB69,2020-04-10,00:31:30,29.9,51.2,6,9,10,489,0,-2,-1,58,79,72,81,-3,-1,57,0.0,0.0,25.039288,121.612939,0,0,0,0,0,0,0,0,0,0,0,0,0,00000000
0C9A4249DB69,2020-04-10,00:31:45,29.9,51.2,6,10,11,488,0,-3,-1,57,78,72,86,-3,-1,57,0.0,0.0,25.039288,121.612939,0,0,0,0,0,0,0,0,0,0,0,0,0,00000000
0C9A4249DB69,2020-04-10,00:32:00,29.9,51.2,6,9,10,488,0,-3,-1,57,56,53,79,-3,0,58,0.0,0.0,25.039288,121.612939,0,0,0,0,0,0,0,0,0,0,0,0,0,00000000
0C9A4249DB69,2020-04-10,00:32:15,29.9,51.2,7,10,11,488,0,-3,0,58,74,69,78,-3,-1,58,0.0,0.0,25.039288,121.612939,0,0,0,0,0,0,0,0,0,0,0,0,0,00000000
0C9A4249DB69,2020-04-10,00:32:30,29.9,51.2,5,8,8,489,0,-3,-1,58,78,67,84,-3,0,58,0.0,0.0,25.039288,121.612939,0,0,0,0,0,0,0,0,0,0,0,0,0,00000000
0C9A4249DB69,2020-04-10,00:32:45,29.9,51.1,6,8,8,489,0,-3,0,58,94,103,99,-3,-1,57,0.0,0.0,25.039288,121.612939,0,0,0,0,0,0,0,0,0,0,0,0,0,00000000
0C9A4249DB69,2020-04-10,00:33:00,29.9,51.1,5,8,8,489,0,-3,-1,57,89,82,88,-2,-1,57,0.0,0.0,25.039288,121.612939,0,0,0,0,0,0,0,0,0,0,0,0,0,00000000
0C9A4249DB69,2020-04-10,00:33:15,29.9,51.2,6,10,10,488,0,-2,-1,57,59,62,78,-3,-1,57,0.0,0.0,25.039288,121.612939,0,0,0,0,0,0,0,0,0,0,0,0,0,00000000
0C9A4249DB69,2020-04-10,00:33:30,29.9,51.2,6,9,10,489,0,-3,-1,57,90,88,87,-3,-1,58,0.0,0.0,25.039288,121.612939,0,0,0,0,0,0,0,0,0,0,0,0,0,00000000
0C9A4249DB69,2020-04-10,00:33:45,29.9,51.1,6,9,10,488,0,-3,-1,58,76,76,89,-3,-1,57,0.0,0.0,25.039288,121.612939,0,0,0,0,0,0,0,0,0,0,0,0,0,00000000
0C9A4249DB69,2020-04-10,00:34:00,29.9,51.1,6,9,9,489,0,-3,-1,57,64,62,86,-3,-1,57,0.0,0.0,25.039288,121.612939,0,0,0,0,0,0,0,0,0,0,0,0,0,00000000
0C9A4249DB69,2020-04-10,00:34:15,29.9,51.2,7,9,9,489,0,-3,-1,57,94,81,96,-3,0,57,0.0,0.0,25.039288,121.612939,0,0,0,0,0,0,0,0,0,0,0,0,0,00000000
0C9A4249DB69,2020-04-10,00:34:30,29.9,51.2,6,8,9,488,0,-3,0,57,70,68,95,-3,0,58,0.0,0.0,25.039288,121.612939,0,0,0,0,0,0,0,0,0,0,0,0,0,00000000
0C9A4249DB69,2020-04-10,00:34:45,29.9,51.2,6,8,9,488,0,-3,0,58,78,75,87,-3,-1,57,0.0,0.0,25.039288,121.612939,0,0,0,0,0,0,0,0,0,0,0,0,0,00000000
0C9A4249DB69,2020-04-10,00:35:00,29.9,51.2,4,7,7,488,0,-3,-1,57,78,72,87,-3,-1,58,0.0,0.0,25.039288,121.612939,0,0,0,0,0,0,0,0,0,0,0,0,0,00000000
0C9A4249DB69,2020-04-10,00:35:15,29.9,51.2,6,9,9,488,0,-3,-1,58,54,66,78,-3,-1,58,0.0,0.0,25.039288,121.612939,0,0,0,0,0,0,0,0,0,0,0,0,0,00000000
0C9A4249DB69,2020-04-10,00:35:30,29.9,51.2,6,10,10,488,0,-3,-1,58,70,64,93,-3,-1,57,0.0,0.0,25.039288,121.612939,0,0,0,0,0,0,0,0,0,0,0,0,0,00000000
0C9A4249DB69,2020-04-10,00:35:45,29.9,51.2,5,8,9,488,0,-3,-1,57,85,94,82,-2,-1,57,0.0,0.0,25.039288,121.612939,0,0,0,0,0,0,0,0,0,0,0,0,0,00000000
0C9A4249DB69,2020-04-10,00:36:00,29.9,51.1,6,9,10,488,0,-2,-1,57,91,81,83,-3,0,58,0.0,0.0,25.039288,121.612939,0,0,0,0,0,0,0,0,0,0,0,0,0,00000000
0C9A4249DB69,2020-04-10,00:36:15,29.9,51.2,5,8,9,488,0,-3,0,58,68,65,90,-3,-1,58,0.0,0.0,25.039288,121.612939,0,0,0,0,0,0,0,0,0,0,0,0,0,00000000
0C9A4249DB69,2020-04-10,00:36:30,29.9,51.2,6,8,9,487,0,-3,-1,58,82,78,87,-3,-1,57,0.0,0.0,25.039288,121.612939,0,0,0,0,0,0,0,0,0,0,0,0,0,00000000
0C9A4249DB69,2020-04-10,00:36:45,29.9,51.2,7,9,10,487,0,-3,-1,57,66,62,68,-3,-1,57,0.0,0.0,25.039288,121.612939,0,0,0,0,0,0,0,0,0,0,0,0,0,00000000
0C9A4249DB69,2020-04-10,00:37:00,29.9,51.2,7,10,11,488,0,-3,-1,57,72,82,82,-3,-1,57,0.0,0.0,25.039288,121.612939,0,0,0,0,0,0,0,0,0,0,0,0,0,00000000
0C9A4249DB69,2020-04-10,00:37:15,29.9,51.2,7,10,11,488,0,-3,-1,57,68,78,86,-3,-1,57,0.0,0.0,25.039288,121.612939,0,0,0,0,0,0,0,0,0,0,0,0,0,00000000
0C9A4249DB69,2020-04-10,00:37:30,29.9,51.2,7,9,10,489,0,-3,-1,57,80,57,95,-3,0,58,0.0,0.0,25.039288,121.612939,0,0,0,0,0,0,0,0,0,0,0,0,0,00000000
0C9A4249DB69,2020-04-10,00:37:45,29.9,51.2,6,9,10,489,0,-3,0,58,87,81,77,-2,-1,57,0.0,0.0,25.039288,121.612939,0,0,0,0,0,0,0,0,0,0,0,0,0,00000000
0C9A4249DB69,2020-04-10,00:38:00,29.9,51.2,6,10,10,489,0,-2,-1,57,75,70,80,-3,-1,57,0.0,0.0,25.039288,121.612939,0,0,0,0,0,0,0,0,0,0,0,0,0,00000000
0C9A4249DB69,2020-04-10,00:38:15,29.9,51.2,6,9,10,489,0,-3,-1,57,81,75,91,-2,0,58,0.0,0.0,25.039288,121.612939,0,0,0,0,0,0,0,0,0,0,0,0,0,00000000
0C9A4249DB69,2020-04-10,00:38:30,29.9,51.2,7,10,11,488,0,-2,0,58,77,73,83,-3,-1,57,0.0,0.0,25.039288,121.612939,0,0,0,0,0,0,0,0,0,0,0,0,0,00000000
0C9A4249DB69,2020-04-10,00:38:45,29.9,51.2,5,9,10,488,0,-3,-1,57,82,72,89,-3,-1,58,0.0,0.0,25.039288,121.612939,0,0,0,0,0,0,0,0,0,0,0,0,0,00000000
0C9A4249DB69,2020-04-10,00:39:00,29.9,51.2,6,9,10,488,0,-3,-1,58,64,68,87,-3,-1,57,0.0,0.0,25.039288,121.612939,0,0,0,0,0,0,0,0,0,0,0,0,0,00000000
0C9A4249DB69,2020-04-10,00:39:15,29.9,51.2,5,8,9,488,0,-3,-1,57,50,44,82,-3,-1,57,0.0,0.0,25.039288,121.612939,0,0,0,0,0,0,0,0,0,0,0,0,0,00000000
0C9A4249DB69,2020-04-10,00:39:30,29.9,51.2,6,8,9,489,0,-3,-1,57,77,58,101,-2,-1,58,0.0,0.0,25.039288,121.612939,0,0,0,0,0,0,0,0,0,0,0,0,0,00000000
0C9A4249DB69,2020-04-10,00:39:45,29.9,51.2,6,8,9,489,0,-2,-1,58,60,68,78,-2,-1,58,0.0,0.0,25.039288,121.612939,0,0,0,0,0,0,0,0,0,0,0,0,0,00000000
0C9A4249DB69,2020-04-10,00:40:00,29.9,51.2,6,8,9,488,0,-2,-1,58,73,62,87,-3,-1,57,0.0,0.0,25.039288,121.612939,0,0,0,0,0,0,0,0,0,0,0,0,0,00000000
0C9A4249DB69,2020-04-10,00:40:15,29.9,51.2,5,8,8,489,0,-3,-1,57,65,57,85,-2,0,58,0.0,0.0,25.039288,121.612939,0,0,0,0,0,0,0,0,0,0,0,0,0,00000000
0C9A4249DB69,2020-04-10,00:40:30,29.9,51.2,5,8,8,488,0,-2,0,58,89,76,85,-3,0,57,0.0,0.0,25.039288,121.612939,0,0,0,0,0,0,0,0,0,0,0,0,0,00000000
0C9A4249DB69,2020-04-10,00:40:45,29.9,51.2,6,9,10,488,0,-3,0,57,62,67,74,-3,-1,57,0.0,0.0,25.039288,121.612939,0,0,0,0,0,0,0,0,0,0,0,0,0,00000000
0C9A4249DB69,2020-04-10,00:41:00,29.9,51.2,7,10,10,488,0,-3,-1,57,88,88,98,-3,-1,57,0.0,0.0,25.039288,121.612939,0,0,0,0,0,0,0,0,0,0,0,0,0,00000000
0C9A4249DB69,2020-04-10,00:41:15,29.9,51.2,5,8,9,488,0,-3,-1,57,83,71,78,-2,0,57,0.0,0.0,25.039288,121.612939,0,0,0,0,0,0,0,0,0,0,0,0,0,00000000
0C9A4249DB69,2020-04-10,00:41:30,29.9,51.2,7,10,10,488,0,-2,0,57,75,65,94,-3,-1,57,0.0,0.0,25.039288,121.612939,0,0,0,0,0,0,0,0,0,0,0,0,0,00000000
0C9A4249DB69,2020-04-10,00:41:45,29.9,51.2,6,9,9,488,0,-3,-1,57,58,58,90,-3,-1,57,0.0,0.0,25.039288,121.612939,0,0,0,0,0,0,0,0,0,0,0,0,0,00000000
0C9A4249DB69,2020-04-10,00:42:00,29.9,51.2,6,9,9,489,0,-3,-1,57,56,62,61,-3,-1,58,0.0,0.0,25.039288,121.612939,0,0,0,0,0,0,0,0,0,0,0,0,0,00000000
0C9A4249DB69,2020-04-10,00:42:15,29.9,51.2,5,8,9,489,0,-3,-1,58,60,68,79,-3,-1,57,0.0,0.0,25.039288,121.612939,0,0,0,0,0,0,0,0,0,0,0,0,0,00000000
0C9A4249DB69,2020-04-10,00:42:30,29.9,51.2,4,7,8,488,0,-3,-1,57,80,68,87,-3,-1,58,0.0,0.0,25.039288,121.612939,0,0,0,0,0,0,0,0,0,0,0,0,0,00000000
0C9A4249DB69,2020-04-10,00:42:45,29.9,51.2,6,8,9,488,0,-3,-1,58,79,68,91,-4,-1,57,0.0,0.0,25.039288,121.612939,0,0,0,0,0,0,0,0,0,0,0,0,0,00000000
0C9A4249DB69,2020-04-10,00:43:00,29.9,51.2,6,8,8,487,0,-4,-1,57,93,76,89,-3,-1,58,0.0,0.0,25.039288,121.612939,0,0,0,0,0,0,0,0,0,0,0,0,0,00000000
0C9A4249DB69,2020-04-10,00:43:15,29.9,51.2,6,8,9,488,0,-3,-1,58,80,66,87,-3,-1,57,0.0,0.0,25.039288,121.612939,0,0,0,0,0,0,0,0,0,0,0,0,0,00000000
0C9A4249DB69,2020-04-10,00:43:30,29.9,51.2,6,8,9,488,0,-3,-1,57,73,68,96,-2,-1,57,0.0,0.0,25.039288,121.612939,0,0,0,0,0,0,0,0,0,0,0,0,0,00000000
0C9A4249DB69,2020-04-10,00:43:45,29.9,51.2,5,9,9,487,0,-2,-1,57,72,69,79,-2,0,58,0.0,0.0,25.039288,121.612939,0,0,0,0,0,0,0,0,0,0,0,0,0,00000000
0C9A4249DB69,2020-04-10,00:44:00,29.9,51.2,6,9,9,488,0,-2,0,58,89,97,99,-3,-1,57,0.0,0.0,25.039288,121.612939,0,0,0,0,0,0,0,0,0,0,0,0,0,00000000
0C9A4249DB69,2020-04-10,00:44:15,29.9,51.2,6,9,9,487,0,-3,-1,57,72,75,73,-3,0,58,0.0,0.0,25.039288,121.612939,0,0,0,0,0,0,0,0,0,0,0,0,0,00000000
0C9A4249DB69,2020-04-10,00:44:30,29.9,51.2,6,9,9,487,0,-3,0,58,60,69,85,-3,-1,57,0.0,0.0,25.039288,121.612939,0,0,0,0,0,0,0,0,0,0,0,0,0,00000000
0C9A4249DB69,2020-04-10,00:44:45,29.9,51.2,6,10,10,488,0,-3,-1,57,64,60,81,-3,-1,58,0.0,0.0,25.039288,121.612939,0,0,0,0,0,0,0,0,0,0,0,0,0,00000000
0C9A4249DB69,2020-04-10,00:45:00,29.9,51.2,7,10,11,489,0,-3,-1,58,68,66,83,-3,-1,57,0.0,0.0,25.039288,121.612939,0,0,0,0,0,0,0,0,0,0,0,0,0,00000000
0C9A4249DB69,2020-04-10,00:45:15,29.9,51.2,6,11,11,489,0,-3,-1,57,76,63,75,-3,0,58,0.0,0.0,25.039288,121.612939,0,0,0,0,0,0,0,0,0,0,0,0,0,00000000
0C9A4249DB69,2020-04-10,00:45:30,29.9,51.2,6,9,10,490,0,-3,0,58,74,83,76,-3,-1,58,0.0,0.0,25.039288,121.612939,0,0,0,0,0,0,0,0,0,0,0,0,0,00000000
0C9A4249DB69,2020-04-10,00:45:45,29.9,51.2,6,10,10,489,0,-3,-1,58,82,67,90,-3,0,58,0.0,0.0,25.039288,121.612939,0,0,0,0,0,0,0,0,0,0,0,0,0,00000000
0C9A4249DB69,2020-04-10,00:46:00,29.9,51.2,7,9,10,489,0,-3,0,58,99,85,110,-2,-1,58,0.0,0.0,25.039288,121.612939,0,0,0,0,0,0,0,0,0,0,0,0,0,00000000
0C9A4249DB69,2020-04-10,00:46:15,29.9,51.2,5,8,8,487,0,-2,-1,58,71,68,77,-3,-1,57,0.0,0.0,25.039288,121.612939,0,0,0,0,0,0,0,0,0,0,0,0,0,00000000
0C9A4249DB69,2020-04-10,00:46:30,29.9,51.2,6,10,10,487,0,-3,-1,57,81,71,87,-2,0,58,0.0,0.0,25.039288,121.612939,0,0,0,0,0,0,0,0,0,0,0,0,0,00000000
0C9A4249DB69,2020-04-10,00:46:45,29.9,51.2,6,10,10,487,0,-2,0,58,56,54,78,-2,0,58,0.0,0.0,25.039288,121.612939,0,0,0,0,0,0,0,0,0,0,0,0,0,00000000
0C9A4249DB69,2020-04-10,00:47:00,29.9,51.2,6,9,10,486,0,-2,0,58,76,88,98,-2,0,58,0.0,0.0,25.039288,121.612939,0,0,0,0,0,0,0,0,0,0,0,0,0,00000000
0C9A4249DB69,2020-04-10,00:47:15,29.9,51.2,5,8,9,486,0,-2,0,58,86,79,103,-2,-1,57,0.0,0.0,25.039288,121.612939,0,0,0,0,0,0,0,0,0,0,0,0,0,00000000
0C9A4249DB69,2020-04-10,00:47:30,29.9,51.2,5,8,8,486,0,-2,-1,57,57,52,72,-3,-1,57,0.0,0.0,25.039288,121.612939,0,0,0,0,0,0,0,0,0,0,0,0,0,00000000
0C9A4249DB69,2020-04-10,00:47:45,29.9,51.2,5,7,8,487,0,-3,-1,57,77,64,86,-2,-1,57,0.0,0.0,25.039288,121.612939,0,0,0,0,0,0,0,0,0,0,0,0,0,00000000
0C9A4249DB69,2020-04-10,00:48:00,29.9,51.2,6,9,9,488,0,-2,-1,57,69,69,83,-3,0,58,0.0,0.0,25.039288,121.612939,0,0,0,0,0,0,0,0,0,0,0,0,0,00000000
0C9A4249DB69,2020-04-10,00:48:15,29.9,51.2,6,10,10,488,0,-3,0,58,84,77,82,-3,-1,58,0.0,0.0,25.039288,121.612939,0,0,0,0,0,0,0,0,0,0,0,0,0,00000000
0C9A4249DB69,2020-04-10,00:48:30,29.9,51.2,6,10,10,488,0,-3,-1,58,64,56,88,-3,-1,58,0.0,0.0,25.039288,121.612939,0,0,0,0,0,0,0,0,0,0,0,0,0,00000000
0C9A4249DB69,2020-04-10,00:48:45,29.9,51.2,6,10,10,488,0,-3,-1,58,76,71,92,-3,0,58,0.0,0.0,25.039288,121.612939,0,0,0,0,0,0,0,0,0,0,0,0,0,00000000
0C9A4249DB69,2020-04-10,00:49:00,29.9,51.2,6,10,10,487,0,-3,0,58,85,85,99,-2,-1,57,0.0,0.0,25.039288,121.612939,0,0,0,0,0,0,0,0,0,0,0,0,0,00000000
0C9A4249DB69,2020-04-10,00:49:15,29.9,51.2,5,9,9,488,0,-2,-1,57,77,72,81,-3,-1,58,0.0,0.0,25.039288,121.612939,0,0,0,0,0,0,0,0,0,0,0,0,0,00000000
0C9A4249DB69,2020-04-10,00:49:30,29.9,51.2,7,10,10,488,0,-3,-1,58,66,72,89,-3,-1,57,0.0,0.0,25.039288,121.612939,0,0,0,0,0,0,0,0,0,0,0,0,0,00000000
0C9A4249DB69,2020-04-10,00:49:45,29.9,51.2,6,9,9,489,0,-3,-1,57,50,64,78,-3,-1,57,0.0,0.0,25.039288,121.612939,0,0,0,0,0,0,0,0,0,0,0,0,0,00000000
0C9A4249DB69,2020-04-10,00:50:00,29.9,51.2,6,8,8,486,0,-3,-1,57,68,80,81,-3,-1,58,0.0,0.0,25.039288,121.612939,0,0,0,0,0,0,0,0,0,0,0,0,0,00000000
0C9A4249DB69,2020-04-10,00:50:15,29.9,51.2,6,8,8,487,0,-3,-1,58,78,82,85,-3,-1,57,0.0,0.0,25.039288,121.612939,0,0,0,0,0,0,0,0,0,0,0,0,0,00000000
0C9A4249DB69,2020-04-10,00:50:30,29.9,51.2,5,8,8,486,0,-3,-1,57,81,73,71,-4,-2,56,0.0,0.0,25.039288,121.612939,0,0,0,0,0,0,0,0,0,0,0,0,0,00000000
0C9A4249DB69,2020-04-10,00:50:45,29.9,51.2,5,8,9,486,0,-4,-2,56,61,65,75,-3,-1,57,0.0,0.0,25.039288,121.612939,0,0,0,0,0,0,0,0,0,0,0,0,0,00000000
0C9A4249DB69,2020-04-10,00:51:00,29.9,51.2,6,8,10,487,0,-3,-1,57,79,82,90,-2,-1,57,0.0,0.0,25.039288,121.612939,0,0,0,0,0,0,0,0,0,0,0,0,0,00000000
0C9A4249DB69,2020-04-10,00:51:15,29.9,51.2,6,9,10,487,0,-2,-1,57,54,66,87,-2,-1,58,0.0,0.0,25.039288,121.612939,0,0,0,0,0,0,0,0,0,0,0,0,0,00000000
0C9A4249DB69,2020-04-10,00:51:30,29.9,51.2,7,9,10,486,0,-2,-1,58,83,84,76,-3,-1,58,0.0,0.0,25.039288,121.612939,0,0,0,0,0,0,0,0,0,0,0,0,0,00000000
0C9A4249DB69,2020-04-10,00:51:45,29.9,51.2,6,9,10,487,0,-3,-1,58,78,60,79,-3,-1,57,0.0,0.0,25.039288,121.612939,0,0,0,0,0,0,0,0,0,0,0,0,0,00000000
0C9A4249DB69,2020-04-10,00:52:00,29.9,51.2,6,9,10,487,0,-3,-1,57,78,74,93,-3,-1,58,0.0,0.0,25.039288,121.612939,0,0,0,0,0,0,0,0,0,0,0,0,0,00000000
0C9A4249DB69,2020-04-10,00:52:15,29.8,51.3,6,8,9,486,0,-3,-1,58,99,72,84,-2,-1,58,0.0,0.0,25.039288,121.612939,0,0,0,0,0,0,0,0,0,0,0,0,0,00000000
0C9A4249DB69,2020-04-10,00:52:30,29.9,51.3,6,8,9,487,0,-2,-1,58,85,68,93,-3,-1,57,0.0,0.0,25.039288,121.612939,0,0,0,0,0,0,0,0,0,0,0,0,0,00000000
0C9A4249DB69,2020-04-10,00:52:45,29.9,51.2,5,8,8,487,0,-3,-1,57,60,64,72,-3,-1,57,0.0,0.0,25.039288,121.612939,0,0,0,0,0,0,0,0,0,0,0,0,0,00000000
0C9A4249DB69,2020-04-10,00:53:00,29.8,51.3,5,8,8,487,0,-3,-1,57,71,62,87,-2,-1,58,0.0,0.0,25.039288,121.612939,0,0,0,0,0,0,0,0,0,0,0,0,0,00000000
0C9A4249DB69,2020-04-10,00:53:15,29.8,51.3,5,9,9,487,0,-2,-1,58,78,76,102,-2,-1,58,0.0,0.0,25.039288,121.612939,0,0,0,0,0,0,0,0,0,0,0,0,0,00000000
0C9A4249DB69,2020-04-10,00:53:30,29.9,51.3,5,10,11,488,0,-2,-1,58,95,104,103,-3,-1,57,0.0,0.0,25.039288,121.612939,0,0,0,0,0,0,0,0,0,0,0,0,0,00000000
0C9A4249DB69,2020-04-10,00:53:45,29.9,51.2,5,10,10,489,0,-3,-1,57,86,72,84,-3,-1,57,0.0,0.0,25.039288,121.612939,0,0,0,0,0,0,0,0,0,0,0,0,0,00000000
0C9A4249DB69,2020-04-10,00:54:00,29.9,51.2,4,8,9,489,0,-3,-1,57,89,100,101,-2,-1,58,0.0,0.0,25.039288,121.612939,0,0,0,0,0,0,0,0,0,0,0,0,0,00000000
0C9A4249DB69,2020-04-10,00:54:15,29.9,51.2,4,6,7,489,0,-2,-1,58,89,70,87,-3,-1,57,0.0,0.0,25.039288,121.612939,0,0,0,0,0,0,0,0,0,0,0,0,0,00000000
0C9A4249DB69,2020-04-10,00:54:30,29.9,51.3,5,7,7,489,0,-3,-1,57,74,62,70,-3,-1,57,0.0,0.0,25.039288,121.612939,0,0,0,0,0,0,0,0,0,0,0,0,0,00000000
0C9A4249DB69,2020-04-10,00:54:45,29.9,51.2,4,7,7,489,0,-3,-1,57,84,69,92,-3,0,57,0.0,0.0,25.039288,121.612939,0,0,0,0,0,0,0,0,0,0,0,0,0,00000000
0C9A4249DB69,2020-04-10,00:55:00,29.9,51.2,6,9,9,488,0,-3,0,57,80,83,82,-3,-1,57,0.0,0.0,25.039288,121.612939,0,0,0,0,0,0,0,0,0,0,0,0,0,00000000
0C9A4249DB69,2020-04-10,00:55:15,29.9,51.2,6,8,9,488,0,-3,-1,57,66,81,80,-3,0,57,0.0,0.0,25.039288,121.612939,0,0,0,0,0,0,0,0,0,0,0,0,0,00000000
0C9A4249DB69,2020-04-10,00:55:30,29.9,51.2,6,8,9,489,0,-3,0,57,96,104,107,-3,0,58,0.0,0.0,25.039288,121.612939,0,0,0,0,0,0,0,0,0,0,0,0,0,00000000
0C9A4249DB69,2020-04-10,00:55:45,29.9,51.3,6,9,9,488,0,-3,0,58,80,76,82,-3,0,58,0.0,0.0,25.039288,121.612939,0,0,0,0,0,0,0,0,0,0,0,0,0,00000000
0C9A4249DB69,2020-04-10,00:56:00,29.8,51.2,5,8,8,488,0,-3,0,58,78,75,85,-3,-1,57,0.0,0.0,25.039288,121.612939,0,0,0,0,0,0,0,0,0,0,0,0,0,00000000
0C9A4249DB69,2020-04-10,00:56:15,29.8,51.2,5,8,8,488,0,-3,-1,57,92,74,84,-3,-1,57,0.0,0.0,25.039288,121.612939,0,0,0,0,0,0,0,0,0,0,0,0,0,00000000
0C9A4249DB69,2020-04-10,00:56:30,29.8,51.3,6,9,9,488,0,-3,-1,57,96,80,88,-3,-1,57,0.0,0.0,25.039288,121.612939,0,0,0,0,0,0,0,0,0,0,0,0,0,00000000
0C9A4249DB69,2020-04-10,00:56:45,29.8,51.3,6,8,9,488,0,-3,-1,57,83,87,99,-2,0,58,0.0,0.0,25.039288,121.612939,0,0,0,0,0,0,0,0,0,0,0,0,0,00000000
0C9A4249DB69,2020-04-10,00:57:00,29.8,51.3,6,9,9,489,0,-2,0,58,82,86,100,-4,-2,56,0.0,0.0,25.039288,121.612939,0,0,0,0,0,0,0,0,0,0,0,0,0,00000000
0C9A4249DB69,2020-04-10,00:57:15,29.8,51.3,5,8,8,488,0,-4,-2,56,67,66,80,-3,-2,58,0.0,0.0,25.039288,121.612939,0,0,0,0,0,0,0,0,0,0,0,0,0,00000000
0C9A4249DB69,2020-04-10,00:57:30,29.8,51.2,5,8,8,488,0,-3,-2,58,68,69,82,-3,-1,58,0.0,0.0,25.039288,121.612939,0,0,0,0,0,0,0,0,0,0,0,0,0,00000000
0C9A4249DB69,2020-04-10,00:57:45,29.8,51.3,5,8,8,489,0,-3,-1,58,86,68,101,-3,-1,57,0.0,0.0,25.039288,121.612939,0,0,0,0,0,0,0,0,0,0,0,0,0,00000000
0C9A4249DB69,2020-04-10,00:58:00,29.9,51.3,5,7,7,489,0,-3,-1,57,80,74,88,-3,-1,57,0.0,0.0,25.039288,121.612939,0,0,0,0,0,0,0,0,0,0,0,0,0,00000000
0C9A4249DB69,2020-04-10,00:58:15,29.9,51.2,5,8,8,489,0,-3,-1,57,78,73,101,-3,0,58,0.0,0.0,25.039288,121.612939,0,0,0,0,0,0,0,0,0,0,0,0,0,00000000
0C9A4249DB69,2020-04-10,00:58:30,29.8,51.2,5,8,8,490,0,-3,0,58,82,82,96,-3,0,58,0.0,0.0,25.039288,121.612939,0,0,0,0,0,0,0,0,0,0,0,0,0,00000000
0C9A4249DB69,2020-04-10,00:58:45,29.9,51.3,5,8,8,490,0,-3,0,58,90,77,103,-3,-1,57,0.0,0.0,25.039288,121.612939,0,0,0,0,0,0,0,0,0,0,0,0,0,00000000
0C9A4249DB69,2020-04-10,00:59:00,29.8,51.3,5,7,7,489,0,-3,-1,57,76,76,89,-3,-1,58,0.0,0.0,25.039288,121.612939,0,0,0,0,0,0,0,0,0,0,0,0,0,00000000
0C9A4249DB69,2020-04-10,00:59:15,29.8,51.3,6,8,8,489,0,-3,-1,58,74,62,75,-3,-1,57,0.0,0.0,25.039288,121.612939,0,0,0,0,0,0,0,0,0,0,0,0,0,00000000
0C9A4249DB69,2020-04-10,00:59:30,29.9,51.3,6,9,9,489,0,-3,-1,57,55,68,90,-2,-1,57,0.0,0.0,25.039288,121.612939,0,0,0,0,0,0,0,0,0,0,0,0,0,00000000
0C9A4249DB69,2020-04-10,00:59:45,29.9,51.3,6,8,8,489,0,-2,-1,57,87,92,108,-3,-1,57,0.0,0.0,25.039288,121.612939,0,0,0,0,0,0,0,0,0,0,0,0,0,00000000
0C9A4249DB69,2020-04-10,01:00:00,29.8,51.3,5,9,9,489,0,-3,-1,57,78,84,79,-3,-1,58,0.0,0.0,25.039288,121.612939,0,0,0,0,0,0,0,0,0,0,0,0,0,00000000
0C9A4249DB69,2020-04-10,01:00:15,29.9,51.3,5,8,8,489,0,-3,-1,58,62,87,85,-3,-2,57,0.0,0.0,25.039288,121.612939,0,0,0,0,0,0,0,0,0,0,0,0,0,00000000
0C9A4249DB69,2020-04-10,01:00:30,29.8,51.3,5,8,8,489,0,-3,-2,57,54,82,95,-3,0,58,0.0,0.0,25.039288,121.612939,0,0,0,0,0,0,0,0,0,0,0,0,0,00000000
0C9A4249DB69,2020-04-10,01:00:45,29.9,51.3,5,8,8,488,0,-3,0,58,76,83,95,-3,-1,57,0.0,0.0,25.039288,121.612939,0,0,0,0,0,0,0,0,0,0,0,0,0,00000000
0C9A4249DB69,2020-04-10,01:01:00,29.9,51.3,5,8,8,488,0,-3,-1,57,74,60,86,-3,-1,57,0.0,0.0,25.039288,121.612939,0,0,0,0,0,0,0,0,0,0,0,0,0,00000000
0C9A4249DB69,2020-04-10,01:01:15,29.8,51.3,4,7,7,488,0,-3,-1,57,76,86,100,-3,-1,57,0.0,0.0,25.039288,121.612939,0,0,0,0,0,0,0,0,0,0,0,0,0,00000000
0C9A4249DB69,2020-04-10,01:01:30,29.8,51.3,5,8,8,489,0,-3,-1,57,78,74,82,-3,-1,57,0.0,0.0,25.039288,121.612939,0,0,0,0,0,0,0,0,0,0,0,0,0,00000000
0C9A4249DB69,2020-04-10,01:01:45,29.8,51.3,6,9,9,489,0,-3,-1,57,92,88,81,-3,-1,58,0.0,0.0,25.039288,121.612939,0,0,0,0,0,0,0,0,0,0,0,0,0,00000000
0C9A4249DB69,2020-04-10,01:02:00,29.8,51.3,5,8,8,489,0,-3,-1,58,70,65,75,-3,0,57,0.0,0.0,25.039288,121.612939,0,0,0,0,0,0,0,0,0,0,0,0,0,00000000
0C9A4249DB69,2020-04-10,01:02:15,29.8,51.3,5,8,8,489,0,-3,0,57,61,68,83,-2,0,58,0.0,0.0,25.039288,121.612939,0,0,0,0,0,0,0,0,0,0,0,0,0,00000000
0C9A4249DB69,2020-04-10,01:02:30,29.9,51.3,5,8,8,489,0,-2,0,58,77,86,92,-3,0,58,0.0,0.0,25.039288,121.612939,0,0,0,0,0,0,0,0,0,0,0,0,0,00000000
0C9A4249DB69,2020-04-10,01:02:45,29.8,51.3,6,9,9,489,0,-3,0,58,84,79,100,-3,-1,58,0.0,0.0,25.039288,121.612939,0,0,0,0,0,0,0,0,0,0,0,0,0,00000000
0C9A4249DB69,2020-04-10,01:03:00,29.9,51.3,6,9,9,489,0,-3,-1,58,72,68,85,-3,-1,57,0.0,0.0,25.039288,121.612939,0,0,0,0,0,0,0,0,0,0,0,0,0,00000000
0C9A4249DB69,2020-04-10,01:03:15,29.8,51.3,6,9,9,489,0,-3,-1,57,74,70,80,-3,-1,57,0.0,0.0,25.039288,121.612939,0,0,0,0,0,0,0,0,0,0,0,0,0,00000000
0C9A4249DB69,2020-04-10,01:03:30,29.8,51.3,6,9,9,489,0,-3,-1,57,89,74,84,-4,-1,57,0.0,0.0,25.039288,121.612939,0,0,0,0,0,0,0,0,0,0,0,0,0,00000000
0C9A4249DB69,2020-04-10,01:03:45,29.8,51.3,6,10,10,489,0,-4,-1,57,87,96,99,-3,-1,58,0.0,0.0,25.039288,121.612939,0,0,0,0,0,0,0,0,0,0,0,0,0,00000000
0C9A4249DB69,2020-04-10,01:04:00,29.9,51.3,6,10,10,489,0,-3,-1,58,80,71,84,-3,0,58,0.0,0.0,25.039288,121.612939,0,0,0,0,0,0,0,0,0,0,0,0,0,00000000
0C9A4249DB69,2020-04-10,01:04:15,29.8,51.3,5,9,9,489,0,-3,0,58,78,67,83,-3,-1,57,0.0,0.0,25.039288,121.612939,0,0,0,0,0,0,0,0,0,0,0,0,0,00000000
0C9A4249DB69,2020-04-10,01:04:30,29.8,51.3,5,8,9,489,0,-3,-1,57,76,74,82,-3,-1,57,0.0,0.0,25.039288,121.612939,0,0,0,0,0,0,0,0,0,0,0,0,0,00000000
0C9A4249DB69,2020-04-10,01:04:45,29.9,51.3,4,8,9,489,0,-3,-1,57,80,93,102,-3,0,57,0.0,0.0,25.039288,121.612939,0,0,0,0,0,0,0,0,0,0,0,0,0,00000000
0C9A4249DB69,2020-04-10,01:05:00,29.8,51.3,4,7,9,489,0,-3,0,57,100,91,100,-3,-1,57,0.0,0.0,25.039288,121.612939,0,0,0,0,0,0,0,0,0,0,0,0,0,00000000
0C9A4249DB69,2020-04-10,01:05:15,29.8,51.3,5,9,10,489,0,-3,-1,57,76,88,110,-3,-1,57,0.0,0.0,25.039288,121.612939,0,0,0,0,0,0,0,0,0,0,0,0,0,00000000
0C9A4249DB69,2020-04-10,01:05:30,29.8,51.3,5,8,9,489,0,-3,-1,57,73,86,105,-2,-1,58,0.0,0.0,25.039288,121.612939,0,0,0,0,0,0,0,0,0,0,0,0,0,00000000
0C9A4249DB69,2020-04-10,01:05:45,29.8,51.3,4,8,9,489,0,-2,-1,58,71,65,78,-3,0,58,0.0,0.0,25.039288,121.612939,0,0,0,0,0,0,0,0,0,0,0,0,0,00000000
0C9A4249DB69,2020-04-10,01:06:00,29.8,51.3,5,9,9,489,0,-3,0,58,78,59,87,-3,-1,57,0.0,0.0,25.039288,121.612939,0,0,0,0,0,0,0,0,0,0,0,0,0,00000000
0C9A4249DB69,2020-04-10,01:06:15,29.8,51.3,5,9,10,489,0,-3,-1,57,80,88,98,-3,-1,57,0.0,0.0,25.039288,121.612939,0,0,0,0,0,0,0,0,0,0,0,0,0,00000000
0C9A4249DB69,2020-04-10,01:06:30,29.8,51.3,6,9,11,490,0,-3,-1,57,60,78,86,-3,-1,57,0.0,0.0,25.039288,121.612939,0,0,0,0,0,0,0,0,0,0,0,0,0,00000000
0C9A4249DB69,2020-04-10,01:06:45,29.8,51.3,5,8,9,489,0,-3,-1,57,74,62,79,-3,-1,58,0.0,0.0,25.039288,121.612939,0,0,0,0,0,0,0,0,0,0,0,0,0,00000000
0C9A4249DB69,2020-04-10,01:07:00,29.8,51.3,5,7,8,491,0,-3,-1,58,90,86,91,-3,-1,57,0.0,0.0,25.039288,121.612939,0,0,0,0,0,0,0,0,0,0,0,0,0,00000000
0C9A4249DB69,2020-04-10,01:07:15,29.8,51.3,4,7,7,490,0,-3,-1,57,74,79,92,-3,0,57,0.0,0.0,25.039288,121.612939,0,0,0,0,0,0,0,0,0,0,0,0,0,00000000
0C9A4249DB69,2020-04-10,01:07:30,29.8,51.3,5,7,7,491,0,-3,0,57,86,75,100,-3,-1,57,0.0,0.0,25.039288,121.612939,0,0,0,0,0,0,0,0,0,0,0,0,0,00000000
0C9A4249DB69,2020-04-10,01:07:45,29.8,51.3,5,7,8,492,0,-3,-1,57,78,80,98,-3,-1,57,0.0,0.0,25.039288,121.612939,0,0,0,0,0,0,0,0,0,0,0,0,0,00000000
0C9A4249DB69,2020-04-10,01:08:00,29.8,51.3,5,8,9,492,0,-3,-1,57,84,83,91,-3,0,58,0.0,0.0,25.039288,121.612939,0,0,0,0,0,0,0,0,0,0,0,0,0,00000000
0C9A4249DB69,2020-04-10,01:08:15,29.8,51.3,6,8,9,489,0,-3,0,58,84,55,84,-3,-1,58,0.0,0.0,25.039288,121.612939,0,0,0,0,0,0,0,0,0,0,0,0,0,00000000
0C9A4249DB69,2020-04-10,01:08:30,29.8,51.3,4,7,8,489,0,-3,-1,58,88,82,111,-3,-1,57,0.0,0.0,25.039288,121.612939,0,0,0,0,0,0,0,0,0,0,0,0,0,00000000
0C9A4249DB69,2020-04-10,01:08:45,29.8,51.3,4,7,7,487,0,-3,-1,57,94,76,93,-3,-1,58,0.0,0.0,25.039288,121.612939,0,0,0,0,0,0,0,0,0,0,0,0,0,00000000
0C9A4249DB69,2020-04-10,01:09:00,29.8,51.3,5,8,8,488,0,-3,-1,58,58,62,83,-3,-1,57,0.0,0.0,25.039288,121.612939,0,0,0,0,0,0,0,0,0,0,0,0,0,00000000
0C9A4249DB69,2020-04-10,01:09:15,29.8,51.3,5,7,8,487,0,-3,-1,57,92,79,95,-3,0,58,0.0,0.0,25.039288,121.612939,0,0,0,0,0,0,0,0,0,0,0,0,0,00000000
0C9A4249DB69,2020-04-10,01:09:30,29.8,51.3,5,7,8,487,0,-3,0,58,84,104,90,-3,0,58,0.0,0.0,25.039288,121.612939,0,0,0,0,0,0,0,0,0,0,0,0,0,00000000
0C9A4249DB69,2020-04-10,01:09:45,29.8,51.3,6,8,9,487,0,-3,0,58,78,77,91,-3,-1,57,0.0,0.0,25.039288,121.612939,0,0,0,0,0,0,0,0,0,0,0,0,0,00000000
0C9A4249DB69,2020-04-10,01:10:00,29.8,51.3,5,8,8,486,0,-3,-1,57,107,113,107,-2,0,58,0.0,0.0,25.039288,121.612939,0,0,0,0,0,0,0,0,0,0,0,0,0,00000000
0C9A4249DB69,2020-04-10,01:10:15,29.8,51.3,6,8,8,487,0,-2,0,58,73,83,83,-3,-1,57,0.0,0.0,25.039288,121.612939,0,0,0,0,0,0,0,0,0,0,0,0,0,00000000
0C9A4249DB69,2020-04-10,01:10:30,29.8,51.3,5,8,8,487,0,-3,-1,57,74,89,96,-1,0,59,0.0,0.0,25.039288,121.612939,0,0,0,0,0,0,0,0,0,0,0,0,0,00000000
0C9A4249DB69,2020-04-10,01:10:45,29.8,51.3,5,8,8,487,0,-1,0,59,86,77,86,-3,-1,57,0.0,0.0,25.039288,121.612939,0,0,0,0,0,0,0,0,0,0,0,0,0,00000000
0C9A4249DB69,2020-04-10,01:11:00,29.8,51.3,6,8,8,487,0,-3,-1,57,66,74,78,-3,-1,57,0.0,0.0,25.039288,121.612939,0,0,0,0,0,0,0,0,0,0,0,0,0,00000000
0C9A4249DB69,2020-04-10,01:11:15,29.8,51.3,5,8,9,488,0,-3,-1,57,82,88,98,-3,-1,57,0.0,0.0,25.039288,121.612939,0,0,0,0,0,0,0,0,0,0,0,0,0,00000000
0C9A4249DB69,2020-04-10,01:11:30,29.8,51.4,6,8,8,487,0,-3,-1,57,70,72,88,-3,-1,57,0.0,0.0,25.039288,121.612939,0,0,0,0,0,0,0,0,0,0,0,0,0,00000000
0C9A4249DB69,2020-04-10,01:11:45,29.8,51.3,4,6,7,487,0,-3,-1,57,74,86,94,-3,-1,57,0.0,0.0,25.039288,121.612939,0,0,0,0,0,0,0,0,0,0,0,0,0,00000000
0C9A4249DB69,2020-04-10,01:12:00,29.8,51.3,5,7,7,487,0,-3,-1,57,65,66,83,-2,-1,58,0.0,0.0,25.039288,121.612939,0,0,0,0,0,0,0,0,0,0,0,0,0,00000000
0C9A4249DB69,2020-04-10,01:12:15,29.8,51.3,5,7,7,487,0,-2,-1,58,92,75,91,-2,0,57,0.0,0.0,25.039288,121.612939,0,0,0,0,0,0,0,0,0,0,0,0,0,00000000
0C9A4249DB69,2020-04-10,01:12:30,29.8,51.3,5,7,8,487,0,-2,0,57,76,83,77,-2,-1,58,0.0,0.0,25.039288,121.612939,0,0,0,0,0,0,0,0,0,0,0,0,0,00000000
0C9A4249DB69,2020-04-10,01:12:45,29.8,51.3,5,8,9,487,0,-2,-1,58,77,76,90,-3,-1,58,0.0,0.0,25.039288,121.612939,0,0,0,0,0,0,0,0,0,0,0,0,0,00000000
0C9A4249DB69,2020-04-10,01:13:00,29.8,51.3,4,7,8,487,0,-3,-1,58,86,70,75,-3,-1,57,0.0,0.0,25.039288,121.612939,0,0,0,0,0,0,0,0,0,0,0,0,0,00000000
0C9A4249DB69,2020-04-10,01:13:15,29.8,51.3,-1,-1,-1,487,0,-3,-1,57,76,80,86,-3,-1,57,0.0,0.0,25.039288,121.612939,0,0,0,0,0,0,0,0,0,0,0,0,0,00000000
0C9A4249DB69,2020-04-10,01:13:30,29.8,51.3,4,7,7,487,0,-3,-1,57,80,84,99,-3,-1,58,0.0,0.0,25.039288,121.612939,0,0,0,0,0,0,0,0,0,0,0,0,0,00000000
0C9A4249DB69,2020-04-10,01:13:45,29.8,51.3,5,7,7,487,0,-3,-1,58,70,66,92,-3,-1,58,0.0,0.0,25.039288,121.612939,0,0,0,0,0,0,0,0,0,0,0,0,0,00000000
0C9A4249DB69,2020-04-10,01:14:00,29.8,51.3,5,7,7,487,0,-3,-1,58,75,70,84,-2,-1,58,0.0,0.0,25.039288,121.612939,0,0,0,0,0,0,0,0,0,0,0,0,0,00000000
0C9A4249DB69,2020-04-10,01:14:15,29.8,51.3,6,9,9,487,0,-2,-1,58,73,66,93,-3,-1,57,0.0,0.0,25.039288,121.612939,0,0,0,0,0,0,0,0,0,0,0,0,0,00000000
0C9A4249DB69,2020-04-10,01:14:30,29.8,51.3,6,9,9,487,0,-3,-1,57,90,86,103,-3,-1,58,0.0,0.0,25.039288,121.612939,0,0,0,0,0,0,0,0,0,0,0,0,0,00000000
0C9A4249DB69,2020-04-10,01:14:45,29.8,51.3,5,8,8,487,0,-3,-1,58,106,96,115,-3,-1,57,0.0,0.0,25.039288,121.612939,0,0,0,0,0,0,0,0,0,0,0,0,0,00000000
0C9A4249DB69,2020-04-10,01:15:00,29.8,51.3,5,8,9,487,0,-3,-1,57,100,84,101,-3,-1,58,0.0,0.0,25.039288,121.612939,0,0,0,0,0,0,0,0,0,0,0,0,0,00000000
0C9A4249DB69,2020-04-10,01:15:15,29.8,51.3,5,8,8,487,0,-3,-1,58,80,72,89,-3,-1,57,0.0,0.0,25.039288,121.612939,0,0,0,0,0,0,0,0,0,0,0,0,0,00000000
0C9A4249DB69,2020-04-10,01:15:30,29.8,51.3,6,8,8,487,0,-3,-1,57,83,70,80,-2,-1,57,0.0,0.0,25.039288,121.612939,0,0,0,0,0,0,0,0,0,0,0,0,0,00000000
0C9A4249DB69,2020-04-10,01:15:45,29.8,51.3,6,8,8,488,0,-2,-1,57,100,90,95,-2,-1,58,0.0,0.0,25.039288,121.612939,0,0,0,0,0,0,0,0,0,0,0,0,0,00000000
0C9A4249DB69,2020-04-10,01:16:00,29.8,51.3,6,8,9,487,0,-2,-1,58,81,78,73,-3,-1,57,0.0,0.0,25.039288,121.612939,0,0,0,0,0,0,0,0,0,0,0,0,0,00000000
0C9A4249DB69,2020-04-10,01:16:15,29.8,51.3,6,8,9,487,0,-3,-1,57,90,84,89,-3,-1,58,0.0,0.0,25.039288,121.612939,0,0,0,0,0,0,0,0,0,0,0,0,0,00000000
0C9A4249DB69,2020-04-10,01:16:30,29.8,51.3,5,7,7,486,0,-3,-1,58,93,92,114,-2,-1,58,0.0,0.0,25.039288,121.612939,0,0,0,0,0,0,0,0,0,0,0,0,0,00000000
0C9A4249DB69,2020-04-10,01:16:45,29.8,51.3,4,6,6,486,0,-2,-1,58,107,104,112,-3,-1,58,0.0,0.0,25.039288,121.612939,0,0,0,0,0,0,0,0,0,0,0,0,0,00000000
0C9A4249DB69,2020-04-10,01:17:00,29.8,51.4,5,7,7,487,0,-3,-1,58,64,85,86,-3,0,58,0.0,0.0,25.039288,121.612939,0,0,0,0,0,0,0,0,0,0,0,0,0,00000000
0C9A4249DB69,2020-04-10,01:17:15,29.8,51.3,5,8,8,486,0,-3,0,58,80,71,89,-3,-1,57,0.0,0.0,25.039288,121.612939,0,0,0,0,0,0,0,0,0,0,0,0,0,00000000
0C9A4249DB69,2020-04-10,01:17:30,29.8,51.3,5,8,9,486,0,-3,-1,57,74,82,101,-3,-1,58,0.0,0.0,25.039288,121.612939,0,0,0,0,0,0,0,0,0,0,0,0,0,00000000
0C9A4249DB69,2020-04-10,01:17:45,29.8,51.3,5,9,10,486,0,-3,-1,58,88,100,120,-3,-1,58,0.0,0.0,25.039288,121.612939,0,0,0,0,0,0,0,0,0,0,0,0,0,00000000
0C9A4249DB69,2020-04-10,01:18:00,29.8,51.3,5,9,10,486,0,-3,-1,58,70,68,87,-3,-1,57,0.0,0.0,25.039288,121.612939,0,0,0,0,0,0,0,0,0,0,0,0,0,00000000
0C9A4249DB69,2020-04-10,01:18:15,29.8,51.3,6,9,10,487,0,-3,-1,57,80,76,92,-3,-1,57,0.0,0.0,25.039288,121.612939,0,0,0,0,0,0,0,0,0,0,0,0,0,00000000
0C9A4249DB69,2020-04-10,01:18:30,29.8,51.3,5,9,9,487,0,-3,-1,57,69,67,82,-2,0,57,0.0,0.0,25.039288,121.612939,0,0,0,0,0,0,0,0,0,0,0,0,0,00000000
0C9A4249DB69,2020-04-10,01:18:45,29.8,51.3,5,8,9,487,0,-2,0,57,91,96,94,-3,-2,57,0.0,0.0,25.039288,121.612939,0,0,0,0,0,0,0,0,0,0,0,0,0,00000000
0C9A4249DB69,2020-04-10,01:19:00,29.8,51.3,4,7,8,487,0,-3,-2,57,70,65,87,-3,-1,58,0.0,0.0,25.039288,121.612939,0,0,0,0,0,0,0,0,0,0,0,0,0,00000000
0C9A4249DB69,2020-04-10,01:19:15,29.8,51.3,5,7,8,488,0,-3,-1,58,76,66,84,-3,-1,58,0.0,0.0,25.039288,121.612939,0,0,0,0,0,0,0,0,0,0,0,0,0,00000000
0C9A4249DB69,2020-04-10,01:19:30,29.8,51.4,4,7,7,488,0,-3,-1,58,88,91,96,-3,0,58,0.0,0.0,25.039288,121.612939,0,0,0,0,0,0,0,0,0,0,0,0,0,00000000
0C9A4249DB69,2020-04-10,01:19:45,29.8,51.3,5,7,8,487,0,-3,0,58,68,85,87,-3,-1,57,0.0,0.0,25.039288,121.612939,0,0,0,0,0,0,0,0,0,0,0,0,0,00000000
0C9A4249DB69,2020-04-10,01:20:00,29.8,51.3,5,7,8,487,0,-3,-1,57,90,76,90,-3,-1,57,0.0,0.0,25.039288,121.612939,0,0,0,0,0,0,0,0,0,0,0,0,0,00000000
0C9A4249DB69,2020-04-10,01:20:15,29.8,51.3,4,7,7,488,0,-3,-1,57,70,60,78,-3,-1,57,0.0,0.0,25.039288,121.612939,0,0,0,0,0,0,0,0,0,0,0,0,0,00000000
0C9A4249DB69,2020-04-10,01:20:30,29.8,51.4,5,9,10,487,0,-3,-1,57,64,68,90,-3,-1,57,0.0,0.0,25.039288,121.612939,0,0,0,0,0,0,0,0,0,0,0,0,0,00000000
0C9A4249DB69,2020-04-10,01:20:45,29.8,51.3,5,8,9,487,0,-3,-1,57,64,76,82,-3,-1,57,0.0,0.0,25.039288,121.612939,0,0,0,0,0,0,0,0,0,0,0,0,0,00000000
0C9A4249DB69,2020-04-10,01:21:00,29.8,51.3,6,9,9,487,0,-3,-1,57,90,80,96,-3,-1,57,0.0,0.0,25.039288,121.612939,0,0,0,0,0,0,0,0,0,0,0,0,0,00000000
0C9A4249DB69,2020-04-10,01:21:15,29.8,51.4,5,8,8,487,0,-3,-1,57,89,85,93,-4,-2,56,0.0,0.0,25.039288,121.612939,0,0,0,0,0,0,0,0,0,0,0,0,0,00000000
0C9A4249DB69,2020-04-10,01:21:30,29.8,51.3,5,8,8,487,0,-4,-2,56,69,79,91,-3,-1,57,0.0,0.0,25.039288,121.612939,0,0,0,0,0,0,0,0,0,0,0,0,0,00000000
0C9A4249DB69,2020-04-10,01:21:45,29.8,51.3,5,8,8,487,0,-3,-1,57,69,62,80,-2,-1,57,0.0,0.0,25.039288,121.612939,0,0,0,0,0,0,0,0,0,0,0,0,0,00000000
0C9A4249DB69,2020-04-10,01:22:00,29.8,51.3,4,7,8,487,0,-2,-1,57,68,64,77,-2,-1,58,0.0,0.0,25.039288,121.612939,0,0,0,0,0,0,0,0,0,0,0,0,0,00000000
0C9A4249DB69,2020-04-10,01:22:15,29.8,51.3,5,8,9,487,0,-2,-1,58,75,72,106,-3,-1,58,0.0,0.0,25.039288,121.612939,0,0,0,0,0,0,0,0,0,0,0,0,0,00000000
0C9A4249DB69,2020-04-10,01:22:30,29.8,51.4,6,9,9,487,0,-3,-1,58,86,80,87,-3,-1,57,0.0,0.0,25.039288,121.612939,0,0,0,0,0,0,0,0,0,0,0,0,0,00000000
0C9A4249DB69,2020-04-10,01:22:45,29.8,51.4,5,8,8,487,0,-3,-1,57,98,91,103,-3,0,58,0.0,0.0,25.039288,121.612939,0,0,0,0,0,0,0,0,0,0,0,0,0,00000000
0C9A4249DB69,2020-04-10,01:23:00,29.8,51.4,5,8,8,487,0,-3,0,58,90,85,104,-3,-1,58,0.0,0.0,25.039288,121.612939,0,0,0,0,0,0,0,0,0,0,0,0,0,00000000
0C9A4249DB69,2020-04-10,01:23:15,29.8,51.3,5,8,9,487,0,-3,-1,58,88,88,91,-3,-1,57,0.0,0.0,25.039288,121.612939,0,0,0,0,0,0,0,0,0,0,0,0,0,00000000
0C9A4249DB69,2020-04-10,01:23:30,29.8,51.4,6,8,9,487,0,-3,-1,57,88,84,100,-3,-1,57,0.0,0.0,25.039288,121.612939,0,0,0,0,0,0,0,0,0,0,0,0,0,00000000
0C9A4249DB69,2020-04-10,01:23:45,29.8,51.4,5,7,8,487,0,-3,-1,57,122,112,96,-3,-1,57,0.0,0.0,25.039288,121.612939,0,0,0,0,0,0,0,0,0,0,0,0,0,00000000
0C9A4249DB69,2020-04-10,01:24:00,29.8,51.4,6,8,9,487,0,-3,-1,57,65,70,93,-2,-1,58,0.0,0.0,25.039288,121.612939,0,0,0,0,0,0,0,0,0,0,0,0,0,00000000
0C9A4249DB69,2020-04-10,01:24:15,29.8,51.4,6,8,9,487,0,-2,-1,58,87,87,98,-3,0,58,0.0,0.0,25.039288,121.612939,0,0,0,0,0,0,0,0,0,0,0,0,0,00000000
0C9A4249DB69,2020-04-10,01:24:30,29.8,51.4,5,8,8,487,0,-3,0,58,82,75,95,-3,-1,57,0.0,0.0,25.039288,121.612939,0,0,0,0,0,0,0,0,0,0,0,0,0,00000000
0C9A4249DB69,2020-04-10,01:24:45,29.8,51.4,5,8,8,487,0,-3,-1,57,86,86,89,-3,-1,58,0.0,0.0,25.039288,121.612939,0,0,0,0,0,0,0,0,0,0,0,0,0,00000000
0C9A4249DB69,2020-04-10,01:25:00,29.8,51.4,4,6,7,487,0,-3,-1,58,117,90,110,-2,-1,58,0.0,0.0,25.039288,121.612939,0,0,0,0,0,0,0,0,0,0,0,0,0,00000000
0C9A4249DB69,2020-04-10,01:25:15,29.8,51.4,5,8,8,487,0,-2,-1,58,77,84,85,-3,-1,57,0.0,0.0,25.039288,121.612939,0,0,0,0,0,0,0,0,0,0,0,0,0,00000000
0C9A4249DB69,2020-04-10,01:25:30,29.8,51.4,6,8,8,487,0,-3,-1,57,46,53,94,-3,0,57,0.0,0.0,25.039288,121.612939,0,0,0,0,0,0,0,0,0,0,0,0,0,00000000
0C9A4249DB69,2020-04-10,01:25:45,29.8,51.3,6,8,8,487,0,-3,0,57,86,85,88,-1,1,59,0.0,0.0,25.039288,121.612939,0,0,0,0,0,0,0,0,0,0,0,0,0,00000000
0C9A4249DB69,2020-04-10,01:26:00,29.8,51.3,5,8,8,487,0,-1,1,59,76,60,84,-3,-1,57,0.0,0.0,25.039288,121.612939,0,0,0,0,0,0,0,0,0,0,0,0,0,00000000
0C9A4249DB69,2020-04-10,01:26:15,29.8,51.4,5,7,7,487,0,-3,-1,57,74,64,89,-3,-1,58,0.0,0.0,25.039288,121.612939,0,0,0,0,0,0,0,0,0,0,0,0,0,00000000
0C9A4249DB69,2020-04-10,01:26:30,29.8,51.3,5,8,8,487,0,-3,-1,58,76,78,89,-3,-1,57,0.0,0.0,25.039288,121.612939,0,0,0,0,0,0,0,0,0,0,0,0,0,00000000
0C9A4249DB69,2020-04-10,01:26:45,29.8,51.4,5,7,7,488,0,-3,-1,57,82,80,95,-3,-1,58,0.0,0.0,25.039288,121.612939,0,0,0,0,0,0,0,0,0,0,0,0,0,00000000
0C9A4249DB69,2020-04-10,01:27:00,29.8,51.4,5,8,8,489,0,-3,-1,58,74,74,85,-3,-1,57,0.0,0.0,25.039288,121.612939,0,0,0,0,0,0,0,0,0,0,0,0,0,00000000
0C9A4249DB69,2020-04-10,01:27:15,29.8,51.4,5,8,8,488,0,-3,-1,57,75,74,73,-2,-1,58,0.0,0.0,25.039288,121.612939,0,0,0,0,0,0,0,0,0,0,0,0,0,00000000
0C9A4249DB69,2020-04-10,01:27:30,29.8,51.4,5,8,8,488,0,-2,-1,58,102,100,107,0,1,59,0.0,0.0,25.039288,121.612939,0,0,0,0,0,0,0,0,0,0,0,0,0,00000000
0C9A4249DB69,2020-04-10,01:27:45,29.8,51.4,5,8,9,488,0,0,1,59,91,86,94,-3,-1,57,0.0,0.0,25.039288,121.612939,0,0,0,0,0,0,0,0,0,0,0,0,0,00000000
0C9A4249DB69,2020-04-10,01:28:00,29.8,51.3,5,8,9,487,0,-3,-1,57,80,64,108,-3,-1,57,0.0,0.0,25.039288,121.612939,0,0,0,0,0,0,0,0,0,0,0,0,0,00000000
0C9A4249DB69,2020-04-10,01:28:15,29.8,51.4,5,7,8,488,0,-3,-1,57,74,68,103,-3,-1,58,0.0,0.0,25.039288,121.612939,0,0,0,0,0,0,0,0,0,0,0,0,0,00000000
0C9A4249DB69,2020-04-10,01:28:30,29.8,51.4,5,7,8,487,0,-3,-1,58,93,91,88,-2,0,58,0.0,0.0,25.039288,121.612939,0,0,0,0,0,0,0,0,0,0,0,0,0,00000000
0C9A4249DB69,2020-04-10,01:28:45,29.8,51.3,5,7,8,487,0,-2,0,58,74,65,90,-2,-1,58,0.0,0.0,25.039288,121.612939,0,0,0,0,0,0,0,0,0,0,0,0,0,00000000
0C9A4249DB69,2020-04-10,01:29:00,29.8,51.4,5,7,8,487,0,-2,-1,58,94,102,101,-2,-1,57,0.0,0.0,25.039288,121.612939,0,0,0,0,0,0,0,0,0,0,0,0,0,00000000
0C9A4249DB69,2020-04-10,01:29:15,29.8,51.4,4,6,7,487,0,-2,-1,57,83,81,81,-3,0,58,0.0,0.0,25.039288,121.612939,0,0,0,0,0,0,0,0,0,0,0,0,0,00000000
0C9A4249DB69,2020-04-10,01:29:30,29.8,51.3,5,7,8,487,0,-3,0,58,102,89,107,-3,-1,57,0.0,0.0,25.039288,121.612939,0,0,0,0,0,0,0,0,0,0,0,0,0,00000000
0C9A4249DB69,2020-04-10,01:29:45,29.8,51.4,5,8,8,488,0,-3,-1,57,80,61,95,-3,0,58,0.0,0.0,25.039288,121.612939,0,0,0,0,0,0,0,0,0,0,0,0,0,00000000
0C9A4249DB69,2020-04-10,01:30:00,29.8,51.4,5,8,8,488,0,-3,0,58,92,79,109,-3,-1,57,0.0,0.0,25.039288,121.612939,0,0,0,0,0,0,0,0,0,0,0,0,0,00000000
0C9A4249DB69,2020-04-10,01:30:15,29.8,51.3,5,8,8,487,0,-3,-1,57,93,75,103,-2,0,58,0.0,0.0,25.039288,121.612939,0,0,0,0,0,0,0,0,0,0,0,0,0,00000000
0C9A4249DB69,2020-04-10,01:30:30,29.8,51.4,3,7,7,487,0,-2,0,58,83,82,100,-3,0,58,0.0,0.0,25.039288,121.612939,0,0,0,0,0,0,0,0,0,0,0,0,0,00000000
0C9A4249DB69,2020-04-10,01:30:45,29.8,51.4,4,8,8,488,0,-3,0,58,88,87,92,-3,-1,58,0.0,0.0,25.039288,121.612939,0,0,0,0,0,0,0,0,0,0,0,0,0,00000000
0C9A4249DB69,2020-04-10,01:31:00,29.8,51.4,4,7,7,487,0,-3,-1,58,74,80,76,-3,-1,58,0.0,0.0,25.039288,121.612939,0,0,0,0,0,0,0,0,0,0,0,0,0,00000000
0C9A4249DB69,2020-04-10,01:31:15,29.8,51.4,4,7,7,487,0,-3,-1,58,84,84,111,-3,-1,57,0.0,0.0,25.039288,121.612939,0,0,0,0,0,0,0,0,0,0,0,0,0,00000000
0C9A4249DB69,2020-04-10,01:31:30,29.8,51.4,5,8,8,486,0,-3,-1,57,92,80,102,-3,-1,57,0.0,0.0,25.039288,121.612939,0,0,0,0,0,0,0,0,0,0,0,0,0,00000000
0C9A4249DB69,2020-04-10,01:31:45,29.8,51.3,5,8,9,486,0,-3,-1,57,82,70,86,-3,-1,57,0.0,0.0,25.039288,121.612939,0,0,0,0,0,0,0,0,0,0,0,0,0,00000000
0C9A4249DB69,2020-04-10,01:32:00,29.8,51.4,4,7,8,486,0,-3,-1,57,70,78,89,-3,-1,58,0.0,0.0,25.039288,121.612939,0,0,0,0,0,0,0,0,0,0,0,0,0,00000000
0C9A4249DB69,2020-04-10,01:32:15,29.8,51.4,4,7,7,486,0,-3,-1,58,79,78,89,-2,-1,57,0.0,0.0,25.039288,121.612939,0,0,0,0,0,0,0,0,0,0,0,0,0,00000000
0C9A4249DB69,2020-04-10,01:32:30,29.8,51.4,3,6,7,486,0,-2,-1,57,99,86,99,-3,-1,58,0.0,0.0,25.039288,121.612939,0,0,0,0,0,0,0,0,0,0,0,0,0,00000000
0C9A4249DB69,2020-04-10,01:32:45,29.8,51.4,5,8,8,487,0,-3,-1,58,64,78,80,-3,-1,58,0.0,0.0,25.039288,121.612939,0,0,0,0,0,0,0,0,0,0,0,0,0,00000000
0C9A4249DB69,2020-04-10,01:33:00,29.8,51.4,5,8,8,486,0,-3,-1,58,82,79,93,-3,0,57,0.0,0.0,25.039288,121.612939,0,0,0,0,0,0,0,0,0,0,0,0,0,00000000
0C9A4249DB69,2020-04-10,01:33:15,29.8,51.4,5,8,8,485,0,-3,0,57,78,59,94,-3,-1,57,0.0,0.0,25.039288,121.612939,0,0,0,0,0,0,0,0,0,0,0,0,0,00000000
0C9A4249DB69,2020-04-10,01:33:30,29.8,51.4,4,6,6,485,0,-3,-1,57,97,85,95,-2,0,58,0.0,0.0,25.039288,121.612939,0,0,0,0,0,0,0,0,0,0,0,0,0,00000000
0C9A4249DB69,2020-04-10,01:33:45,29.8,51.4,5,7,7,485,0,-2,0,58,75,77,107,-3,-1,57,0.0,0.0,25.039288,121.612939,0,0,0,0,0,0,0,0,0,0,0,0,0,00000000
0C9A4249DB69,2020-04-10,01:34:00,29.8,51.4,5,7,7,486,0,-3,-1,57,76,72,94,-3,-1,57,0.0,0.0,25.039288,121.612939,0,0,0,0,0,0,0,0,0,0,0,0,0,00000000
0C9A4249DB69,2020-04-10,01:34:15,29.8,51.4,5,7,7,486,0,-3,-1,57,81,83,81,-2,0,58,0.0,0.0,25.039288,121.612939,0,0,0,0,0,0,0,0,0,0,0,0,0,00000000
0C9A4249DB69,2020-04-10,01:34:30,29.8,51.4,4,7,7,486,0,-2,0,58,73,80,84,-3,0,58,0.0,0.0,25.039288,121.612939,0,0,0,0,0,0,0,0,0,0,0,0,0,00000000
0C9A4249DB69,2020-04-10,01:34:45,29.8,51.4,3,6,6,487,0,-3,0,58,94,91,100,-3,-1,58,0.0,0.0,25.039288,121.612939,0,0,0,0,0,0,0,0,0,0,0,0,0,00000000
0C9A4249DB69,2020-04-10,01:35:00,29.8,51.4,3,5,5,487,0,-3,-1,58,80,86,87,-3,-1,57,0.0,0.0,25.039288,121.612939,0,0,0,0,0,0,0,0,0,0,0,0,0,00000000
0C9A4249DB69,2020-04-10,01:35:15,29.7,51.4,4,6,6,487,0,-3,-1,57,88,82,84,-3,-1,57,0.0,0.0,25.039288,121.612939,0,0,0,0,0,0,0,0,0,0,0,0,0,00000000
0C9A4249DB69,2020-04-10,01:35:30,29.8,51.4,5,7,7,487,0,-3,-1,57,83,76,94,-2,-1,57,0.0,0.0,25.039288,121.612939,0,0,0,0,0,0,0,0,0,0,0,0,0,00000000
0C9A4249DB69,2020-04-10,01:35:45,29.8,51.4,5,7,7,487,0,-2,-1,57,87,79,96,-3,0,57,0.0,0.0,25.039288,121.612939,0,0,0,0,0,0,0,0,0,0,0,0,0,00000000
0C9A4249DB69,2020-04-10,01:36:00,29.8,51.3,5,7,7,487,0,-3,0,57,85,89,87,-2,-1,58,0.0,0.0,25.039288,121.612939,0,0,0,0,0,0,0,0,0,0,0,0,0,00000000
0C9A4249DB69,2020-04-10,01:36:15,29.8,51.4,4,7,7,487,0,-2,-1,58,81,70,97,-3,-1,57,0.0,0.0,25.039288,121.612939,0,0,0,0,0,0,0,0,0,0,0,0,0,00000000
0C9A4249DB69,2020-04-10,01:36:30,29.8,51.4,4,6,7,488,0,-3,-1,57,77,82,93,-2,-1,58,0.0,0.0,25.039288,121.612939,0,0,0,0,0,0,0,0,0,0,0,0,0,00000000
0C9A4249DB69,2020-04-10,01:36:45,29.8,51.4,5,7,8,488,0,-2,-1,58,73,86,88,-3,-1,58,0.0,0.0,25.039288,121.612939,0,0,0,0,0,0,0,0,0,0,0,0,0,00000000
0C9A4249DB69,2020-04-10,01:37:00,29.8,51.4,5,7,8,488,0,-3,-1,58,75,69,88,-2,0,58,0.0,0.0,25.039288,121.612939,0,0,0,0,0,0,0,0,0,0,0,0,0,00000000
0C9A4249DB69,2020-04-10,01:37:15,29.8,51.4,4,6,7,488,0,-2,0,58,108,102,114,-2,0,58,0.0,0.0,25.039288,121.612939,0,0,0,0,0,0,0,0,0,0,0,0,0,00000000
0C9A4249DB69,2020-04-10,01:37:30,29.8,51.4,5,8,8,488,0,-2,0,58,81,87,91,-3,-1,57,0.0,0.0,25.039288,121.612939,0,0,0,0,0,0,0,0,0,0,0,0,0,00000000
0C9A4249DB69,2020-04-10,01:37:45,29.8,51.4,5,8,8,487,0,-3,-1,57,88,102,92,-3,-1,57,0.0,0.0,25.039288,121.612939,0,0,0,0,0,0,0,0,0,0,0,0,0,00000000
0C9A4249DB69,2020-04-10,01:38:00,29.8,51.4,5,9,9,488,0,-3,-1,57,76,70,88,-3,-1,57,0.0,0.0,25.039288,121.612939,0,0,0,0,0,0,0,0,0,0,0,0,0,00000000
0C9A4249DB69,2020-04-10,01:38:15,29.8,51.4,5,7,7,488,0,-3,-1,57,60,72,82,-3,-1,57,0.0,0.0,25.039288,121.612939,0,0,0,0,0,0,0,0,0,0,0,0,0,00000000
0C9A4249DB69,2020-04-10,01:38:30,29.8,51.4,5,7,7,488,0,-3,-1,57,87,82,92,-2,-1,57,0.0,0.0,25.039288,121.612939,0,0,0,0,0,0,0,0,0,0,0,0,0,00000000
0C9A4249DB69,2020-04-10,01:38:45,29.8,51.4,4,7,7,488,0,-2,-1,57,95,90,94,-3,-1,57,0.0,0.0,25.039288,121.612939,0,0,0,0,0,0,0,0,0,0,0,0,0,00000000
0C9A4249DB69,2020-04-10,01:39:00,29.8,51.4,4,7,7,487,0,-3,-1,57,76,88,87,-3,-1,58,0.0,0.0,25.039288,121.612939,0,0,0,0,0,0,0,0,0,0,0,0,0,00000000
0C9A4249DB69,2020-04-10,01:39:15,29.8,51.4,5,8,8,487,0,-3,-1,58,88,70,85,-3,-1,57,0.0,0.0,25.039288,121.612939,0,0,0,0,0,0,0,0,0,0,0,0,0,00000000
0C9A4249DB69,2020-04-10,01:39:30,29.8,51.4,4,7,8,487,0,-3,-1,57,84,92,97,-3,-1,56,0.0,0.0,25.039288,121.612939,0,0,0,0,0,0,0,0,0,0,0,0,0,00000000
0C9A4249DB69,2020-04-10,01:39:45,29.8,51.4,5,8,8,487,0,-3,-1,56,86,87,114,-3,0,58,0.0,0.0,25.039288,121.612939,0,0,0,0,0,0,0,0,0,0,0,0,0,00000000
0C9A4249DB69,2020-04-10,01:40:00,29.8,51.4,5,8,8,487,0,-3,0,58,93,87,91,-2,-1,57,0.0,0.0,25.039288,121.612939,0,0,0,0,0,0,0,0,0,0,0,0,0,00000000
0C9A4249DB69,2020-04-10,01:40:15,29.8,51.4,5,7,7,487,0,-2,-1,57,77,72,84,-3,-1,57,0.0,0.0,25.039288,121.612939,0,0,0,0,0,0,0,0,0,0,0,0,0,00000000
0C9A4249DB69,2020-04-10,01:40:30,29.8,51.4,4,6,7,487,0,-3,-1,57,76,79,88,-3,-2,57,0.0,0.0,25.039288,121.612939,0,0,0,0,0,0,0,0,0,0,0,0,0,00000000
0C9A4249DB69,2020-04-10,01:40:45,29.8,51.4,4,7,7,487,0,-3,-2,57,99,91,93,-2,-1,58,0.0,0.0,25.039288,121.612939,0,0,0,0,0,0,0,0,0,0,0,0,0,00000000
0C9A4249DB69,2020-04-10,01:41:00,29.8,51.4,5,7,7,488,0,-2,-1,58,97,80,101,-3,-1,57,0.0,0.0,25.039288,121.612939,0,0,0,0,0,0,0,0,0,0,0,0,0,00000000
0C9A4249DB69,2020-04-10,01:41:15,29.8,51.4,4,7,7,487,0,-3,-1,57,80,72,90,-3,-1,57,0.0,0.0,25.039288,121.612939,0,0,0,0,0,0,0,0,0,0,0,0,0,00000000
0C9A4249DB69,2020-04-10,01:41:30,29.8,51.4,4,6,6,487,0,-3,-1,57,98,92,100,-3,-1,57,0.0,0.0,25.039288,121.612939,0,0,0,0,0,0,0,0,0,0,0,0,0,00000000
0C9A4249DB69,2020-04-10,01:41:45,29.8,51.4,5,7,8,488,0,-3,-1,57,82,74,91,-1,1,58,0.0,0.0,25.039288,121.612939,0,0,0,0,0,0,0,0,0,0,0,0,0,00000000
0C9A4249DB69,2020-04-10,01:42:00,29.8,51.4,5,7,8,487,0,-1,1,58,96,86,99,-3,-1,57,0.0,0.0,25.039288,121.612939,0,0,0,0,0,0,0,0,0,0,0,0,0,00000000
0C9A4249DB69,2020-04-10,01:42:15,29.8,51.4,5,7,7,488,0,-3,-1,57,100,91,101,-3,0,58,0.0,0.0,25.039288,121.612939,0,0,0,0,0,0,0,0,0,0,0,0,0,00000000
0C9A4249DB69,2020-04-10,01:42:30,29.8,51.4,5,7,8,488,0,-3,0,58,78,81,91,-3,-1,57,0.0,0.0,25.039288,121.612939,0,0,0,0,0,0,0,0,0,0,0,0,0,00000000
0C9A4249DB69,2020-04-10,01:42:45,29.8,51.4,5,7,7,488,0,-3,-1,57,92,84,92,-3,-1,57,0.0,0.0,25.039288,121.612939,0,0,0,0,0,0,0,0,0,0,0,0,0,00000000
0C9A4249DB69,2020-04-10,01:43:00,29.8,51.4,4,7,7,488,0,-3,-1,57,92,78,88,-3,-1,57,0.0,0.0,25.039288,121.612939,0,0,0,0,0,0,0,0,0,0,0,0,0,00000000
0C9A4249DB69,2020-04-10,01:43:15,29.8,51.4,4,7,8,488,0,-3,-1,57,94,76,104,-3,-1,57,0.0,0.0,25.039288,121.612939,0,0,0,0,0,0,0,0,0,0,0,0,0,00000000
0C9A4249DB69,2020-04-10,01:43:30,29.8,51.4,4,7,8,488,0,-3,-1,57,90,100,92,-3,-1,57,0.0,0.0,25.039288,121.612939,0,0,0,0,0,0,0,0,0,0,0,0,0,00000000
0C9A4249DB69,2020-04-10,01:43:45,29.7,51.4,4,7,8,488,0,-3,-1,57,80,79,95,-3,0,58,0.0,0.0,25.039288,121.612939,0,0,0,0,0,0,0,0,0,0,0,0,0,00000000
0C9A4249DB69,2020-04-10,01:44:00,29.7,51.4,4,7,8,488,0,-3,0,58,90,79,87,-3,-1,57,0.0,0.0,25.039288,121.612939,0,0,0,0,0,0,0,0,0,0,0,0,0,00000000
0C9A4249DB69,2020-04-10,01:44:15,29.7,51.4,3,6,7,488,0,-3,-1,57,96,78,110,-3,-1,57,0.0,0.0,25.039288,121.612939,0,0,0,0,0,0,0,0,0,0,0,0,0,00000000
0C9A4249DB69,2020-04-10,01:44:30,29.8,51.4,4,6,7,488,0,-3,-1,57,90,78,83,-3,-1,58,0.0,0.0,25.039288,121.612939,0,0,0,0,0,0,0,0,0,0,0,0,0,00000000
0C9A4249DB69,2020-04-10,01:44:45,29.8,51.4,4,6,7,489,0,-3,-1,58,86,84,93,-3,-1,57,0.0,0.0,25.039288,121.612939,0,0,0,0,0,0,0,0,0,0,0,0,0,00000000
0C9A4249DB69,2020-04-10,01:45:00,29.8,51.4,3,6,8,488,0,-3,-1,57,62,80,95,-3,-1,58,0.0,0.0,25.039288,121.612939,0,0,0,0,0,0,0,0,0,0,0,0,0,00000000
0C9A4249DB69,2020-04-10,01:45:15,29.8,51.4,4,7,8,488,0,-3,-1,58,86,88,107,-3,-1,57,0.0,0.0,25.039288,121.612939,0,0,0,0,0,0,0,0,0,0,0,0,0,00000000
0C9A4249DB69,2020-04-10,01:45:30,29.8,51.4,5,8,9,488,0,-3,-1,57,80,72,93,-3,-1,58,0.0,0.0,25.039288,121.612939,0,0,0,0,0,0,0,0,0,0,0,0,0,00000000
0C9A4249DB69,2020-04-10,01:45:45,29.7,51.4,4,7,8,487,0,-3,-1,58,94,78,77,-3,-1,57,0.0,0.0,25.039288,121.612939,0,0,0,0,0,0,0,0,0,0,0,0,0,00000000
0C9A4249DB69,2020-04-10,01:46:00,29.7,51.4,5,7,7,488,0,-3,-1,57,88,80,96,-3,-1,57,0.0,0.0,25.039288,121.612939,0,0,0,0,0,0,0,0,0,0,0,0,0,00000000
0C9A4249DB69,2020-04-10,01:46:15,29.7,51.4,4,6,6,489,0,-3,-1,57,86,94,90,-3,-1,57,0.0,0.0,25.039288,121.612939,0,0,0,0,0,0,0,0,0,0,0,0,0,00000000
0C9A4249DB69,2020-04-10,01:46:30,29.8,51.4,3,6,6,489,0,-3,-1,57,79,80,86,-2,-1,57,0.0,0.0,25.039288,121.612939,0,0,0,0,0,0,0,0,0,0,0,0,0,00000000
0C9A4249DB69,2020-04-10,01:46:45,29.7,51.4,3,5,6,489,0,-2,-1,57,83,84,87,-3,-1,58,0.0,0.0,25.039288,121.612939,0,0,0,0,0,0,0,0,0,0,0,0,0,00000000
0C9A4249DB69,2020-04-10,01:47:00,29.8,51.4,4,7,7,489,0,-3,-1,58,92,69,80,-3,0,58,0.0,0.0,25.039288,121.612939,0,0,0,0,0,0,0,0,0,0,0,0,0,00000000
0C9A4249DB69,2020-04-10,01:47:15,29.7,51.4,4,7,7,488,0,-3,0,58,116,95,115,-3,-1,57,0.0,0.0,25.039288,121.612939,0,0,0,0,0,0,0,0,0,0,0,0,0,00000000
0C9A4249DB69,2020-04-10,01:47:30,29.7,51.4,5,7,7,488,0,-3,-1,57,90,97,93,-3,0,58,0.0,0.0,25.039288,121.612939,0,0,0,0,0,0,0,0,0,0,0,0,0,00000000
0C9A4249DB69,2020-04-10,01:47:45,29.7,51.4,5,7,7,487,0,-3,0,58,80,59,84,-3,-1,58,0.0,0.0,25.039288,121.612939,0,0,0,0,0,0,0,0,0,0,0,0,0,00000000
0C9A4249DB69,2020-04-10,01:48:00,29.7,51.4,5,7,7,488,0,-3,-1,58,78,63,88,-3,0,58,0.0,0.0,25.039288,121.612939,0,0,0,0,0,0,0,0,0,0,0,0,0,00000000
0C9A4249DB69,2020-04-10,01:48:15,29.8,51.4,5,7,7,487,0,-3,0,58,74,85,87,-3,-1,57,0.0,0.0,25.039288,121.612939,0,0,0,0,0,0,0,0,0,0,0,0,0,00000000
0C9A4249DB69,2020-04-10,01:48:30,29.7,51.4,4,6,7,487,0,-3,-1,57,90,92,86,-3,-1,57,0.0,0.0,25.039288,121.612939,0,0,0,0,0,0,0,0,0,0,0,0,0,00000000
0C9A4249DB69,2020-04-10,01:48:45,29.7,51.4,4,6,7,487,0,-3,-1,57,90,65,70,-3,0,57,0.0,0.0,25.039288,121.612939,0,0,0,0,0,0,0,0,0,0,0,0,0,00000000
0C9A4249DB69,2020-04-10,01:49:00,29.7,51.4,4,7,7,486,0,-3,0,57,76,72,96,-3,-2,57,0.0,0.0,25.039288,121.612939,0,0,0,0,0,0,0,0,0,0,0,0,0,00000000
0C9A4249DB69,2020-04-10,01:49:15,29.7,51.5,4,7,7,486,0,-3,-2,57,80,69,90,-3,-1,57,0.0,0.0,25.039288,121.612939,0,0,0,0,0,0,0,0,0,0,0,0,0,00000000
0C9A4249DB69,2020-04-10,01:49:30,29.8,51.5,4,7,8,486,0,-3,-1,57,88,88,82,-3,-1,57,0.0,0.0,25.039288,121.612939,0,0,0,0,0,0,0,0,0,0,0,0,0,00000000
0C9A4249DB69,2020-04-10,01:49:45,29.7,51.4,5,9,9,486,0,-3,-1,57,90,92,101,-3,-1,58,0.0,0.0,25.039288,121.612939,0,0,0,0,0,0,0,0,0,0,0,0,0,00000000
0C9A4249DB69,2020-04-10,01:50:00,29.7,51.4,5,8,9,486,0,-3,-1,58,67,67,91,-2,0,57,0.0,0.0,25.039288,121.612939,0,0,0,0,0,0,0,0,0,0,0,0,0,00000000
0C9A4249DB69,2020-04-10,01:50:15,29.7,51.4,5,7,7,486,0,-2,0,57,96,86,87,-2,0,58,0.0,0.0,25.039288,121.612939,0,0,0,0,0,0,0,0,0,0,0,0,0,00000000
0C9A4249DB69,2020-04-10,01:50:30,29.7,51.4,5,8,8,486,0,-2,0,58,88,90,84,-2,0,58,0.0,0.0,25.039288,121.612939,0,0,0,0,0,0,0,0,0,0,0,0,0,00000000
0C9A4249DB69,2020-04-10,01:50:45,29.8,51.4,4,6,7,487,0,-2,0,58,96,92,110,-2,0,58,0.0,0.0,25.039288,121.612939,0,0,0,0,0,0,0,0,0,0,0,0,0,00000000
0C9A4249DB69,2020-04-10,01:51:00,29.8,51.5,4,6,7,486,0,-2,0,58,97,81,106,-3,-1,58,0.0,0.0,25.039288,121.612939,0,0,0,0,0,0,0,0,0,0,0,0,0,00000000
0C9A4249DB69,2020-04-10,01:51:15,29.7,51.4,4,6,7,486,0,-3,-1,58,87,83,102,-2,0,58,0.0,0.0,25.039288,121.612939,0,0,0,0,0,0,0,0,0,0,0,0,0,00000000
0C9A4249DB69,2020-04-10,01:51:30,29.7,51.4,4,7,7,486,0,-2,0,58,81,83,88,-3,-1,58,0.0,0.0,25.039288,121.612939,0,0,0,0,0,0,0,0,0,0,0,0,0,00000000
0C9A4249DB69,2020-04-10,01:51:45,29.7,51.4,4,6,7,486,0,-3,-1,58,82,76,82,-3,-1,58,0.0,0.0,25.039288,121.612939,0,0,0,0,0,0,0,0,0,0,0,0,0,00000000
0C9A4249DB69,2020-04-10,01:52:00,29.7,51.4,4,7,7,486,0,-3,-1,58,86,86,96,-3,-1,58,0.0,0.0,25.039288,121.612939,0,0,0,0,0,0,0,0,0,0,0,0,0,00000000
0C9A4249DB69,2020-04-10,01:52:15,29.7,51.4,4,7,7,486,0,-3,-1,58,79,76,87,-4,-1,57,0.0,0.0,25.039288,121.612939,0,0,0,0,0,0,0,0,0,0,0,0,0,00000000
0C9A4249DB69,2020-04-10,01:52:30,29.7,51.4,4,6,6,486,0,-4,-1,57,84,78,95,-2,1,58,0.0,0.0,25.039288,121.612939,0,0,0,0,0,0,0,0,0,0,0,0,0,00000000
0C9A4249DB69,2020-04-10,01:52:45,29.7,51.4,4,6,6,486,0,-2,1,58,91,88,95,-3,-1,57,0.0,0.0,25.039288,121.612939,0,0,0,0,0,0,0,0,0,0,0,0,0,00000000
0C9A4249DB69,2020-04-10,01:53:00,29.8,51.5,4,6,6,486,0,-3,-1,57,75,85,99,-2,0,58,0.0,0.0,25.039288,121.612939,0,0,0,0,0,0,0,0,0,0,0,0,0,00000000
0C9A4249DB69,2020-04-10,01:53:15,29.7,51.4,4,6,6,486,0,-2,0,58,77,80,101,-3,0,57,0.0,0.0,25.039288,121.612939,0,0,0,0,0,0,0,0,0,0,0,0,0,00000000
0C9A4249DB69,2020-04-10,01:53:30,29.7,51.4,4,6,6,485,0,-3,0,57,106,111,116,-3,-1,57,0.0,0.0,25.039288,121.612939,0,0,0,0,0,0,0,0,0,0,0,0,0,00000000
0C9A4249DB69,2020-04-10,01:53:45,29.7,51.4,4,6,6,486,0,-3,-1,57,89,92,100,-2,-1,57,0.0,0.0,25.039288,121.612939,0,0,0,0,0,0,0,0,0,0,0,0,0,00000000
0C9A4249DB69,2020-04-10,01:54:00,29.8,51.4,4,6,6,486,0,-2,-1,57,97,106,98,-3,-1,57,0.0,0.0,25.039288,121.612939,0,0,0,0,0,0,0,0,0,0,0,0,0,00000000
0C9A4249DB69,2020-04-10,01:54:15,29.7,51.4,4,6,6,486,0,-3,-1,57,102,100,109,-3,-1,58,0.0,0.0,25.039288,121.612939,0,0,0,0,0,0,0,0,0,0,0,0,0,00000000
0C9A4249DB69,2020-04-10,01:54:30,29.7,51.4,4,7,7,486,0,-3,-1,58,88,70,88,-3,-1,58,0.0,0.0,25.039288,121.612939,0,0,0,0,0,0,0,0,0,0,0,0,0,00000000
0C9A4249DB69,2020-04-10,01:54:45,29.7,51.4,4,7,7,486,0,-3,-1,58,102,94,100,-3,-1,58,0.0,0.0,25.039288,121.612939,0,0,0,0,0,0,0,0,0,0,0,0,0,00000000
0C9A4249DB69,2020-04-10,01:55:00,29.7,51.4,4,7,7,486,0,-3,-1,58,84,70,94,-3,-1,58,0.0,0.0,25.039288,121.612939,0,0,0,0,0,0,0,0,0,0,0,0,0,00000000
0C9A4249DB69,2020-04-10,01:55:15,29.7,51.5,4,7,7,487,0,-3,-1,58,84,78,90,-3,-1,58,0.0,0.0,25.039288,121.612939,0,0,0,0,0,0,0,0,0,0,0,0,0,00000000
0C9A4249DB69,2020-04-10,01:55:30,29.7,51.4,4,6,6,487,0,-3,-1,58,82,74,93,-3,-1,57,0.0,0.0,25.039288,121.612939,0,0,0,0,0,0,0,0,0,0,0,0,0,00000000
0C9A4249DB69,2020-04-10,01:55:45,29.7,51.4,3,6,6,487,0,-3,-1,57,77,80,87,-2,-1,58,0.0,0.0,25.039288,121.612939,0,0,0,0,0,0,0,0,0,0,0,0,0,00000000
0C9A4249DB69,2020-04-10,01:56:00,29.7,51.4,5,7,8,488,0,-2,-1,58,77,80,95,-3,-1,57,0.0,0.0,25.039288,121.612939,0,0,0,0,0,0,0,0,0,0,0,0,0,00000000
0C9A4249DB69,2020-04-10,01:56:15,29.7,51.4,5,6,8,487,0,-3,-1,57,78,79,88,-3,0,57,0.0,0.0,25.039288,121.612939,0,0,0,0,0,0,0,0,0,0,0,0,0,00000000
0C9A4249DB69,2020-04-10,01:56:30,29.7,51.5,3,5,6,488,0,-3,0,57,70,88,93,-3,0,58,0.0,0.0,25.039288,121.612939,0,0,0,0,0,0,0,0,0,0,0,0,0,00000000
0C9A4249DB69,2020-04-10,01:56:45,29.7,51.4,3,5,6,488,0,-3,0,58,83,90,88,-2,0,58,0.0,0.0,25.039288,121.612939,0,0,0,0,0,0,0,0,0,0,0,0,0,00000000
0C9A4249DB69,2020-04-10,01:57:00,29.7,51.5,4,6,6,488,0,-2,0,58,85,99,96,-3,-1,58,0.0,0.0,25.039288,121.612939,0,0,0,0,0,0,0,0,0,0,0,0,0,00000000
0C9A4249DB69,2020-04-10,01:57:15,29.7,51.4,3,5,5,488,0,-3,-1,58,92,96,110,-3,-1,58,0.0,0.0,25.039288,121.612939,0,0,0,0,0,0,0,0,0,0,0,0,0,00000000
0C9A4249DB69,2020-04-10,01:57:30,29.7,51.4,3,5,6,488,0,-3,-1,58,64,72,77,-3,-1,57,0.0,0.0,25.039288,121.612939,0,0,0,0,0,0,0,0,0,0,0,0,0,00000000
0C9A4249DB69,2020-04-10,01:57:45,29.7,51.5,5,6,7,488,0,-3,-1,57,92,86,93,-3,-1,58,0.0,0.0,25.039288,121.612939,0,0,0,0,0,0,0,0,0,0,0,0,0,00000000
0C9A4249DB69,2020-04-10,01:58:00,29.7,51.5,5,6,7,488,0,-3,-1,58,102,97,100,-3,0,58,0.0,0.0,25.039288,121.612939,0,0,0,0,0,0,0,0,0,0,0,0,0,00000000
0C9A4249DB69,2020-04-10,01:58:15,29.7,51.4,4,7,8,488,0,-3,0,58,90,75,96,-3,-1,58,0.0,0.0,25.039288,121.612939,0,0,0,0,0,0,0,0,0,0,0,0,0,00000000
0C9A4249DB69,2020-04-10,01:58:30,29.7,51.5,5,7,7,488,0,-3,-1,58,86,95,94,-3,0,58,0.0,0.0,25.039288,121.612939,0,0,0,0,0,0,0,0,0,0,0,0,0,00000000
0C9A4249DB69,2020-04-10,01:58:45,29.7,51.5,4,6,7,486,0,-3,0,58,68,81,84,-3,-1,58,0.0,0.0,25.039288,121.612939,0,0,0,0,0,0,0,0,0,0,0,0,0,00000000
0C9A4249DB69,2020-04-10,01:59:00,29.7,51.5,4,6,7,487,0,-3,-1,58,90,82,86,-3,-1,58,0.0,0.0,25.039288,121.612939,0,0,0,0,0,0,0,0,0,0,0,0,0,00000000
0C9A4249DB69,2020-04-10,01:59:15,29.7,51.4,4,6,7,488,0,-3,-1,58,84,98,109,-3,-1,57,0.0,0.0,25.039288,121.612939,0,0,0,0,0,0,0,0,0,0,0,0,0,00000000
0C9A4249DB69,2020-04-10,01:59:30,29.7,51.4,4,6,6,488,0,-3,-1,57,75,70,82,-4,-1,57,0.0,0.0,25.039288,121.612939,0,0,0,0,0,0,0,0,0,0,0,0,0,00000000
0C9A4249DB69,2020-04-10,01:59:45,29.7,51.4,4,6,6,488,0,-4,-1,57,88,92,107,-2,-1,58,0.0,0.0,25.039288,121.612939,0,0,0,0,0,0,0,0,0,0,0,0,0,00000000
0C9A4249DB69,2020-04-10,02:00:00,29.7,51.4,4,6,6,489,0,-2,-1,58,105,84,105,-3,-1,57,0.0,0.0,25.039288,121.612939,0,0,0,0,0,0,0,0,0,0,0,0,0,00000000
0C9A4249DB69,2020-04-10,02:00:15,29.7,51.5,4,6,7,489,0,-3,-1,57,77,81,99,-2,0,58,0.0,0.0,25.039288,121.612939,0,0,0,0,0,0,0,0,0,0,0,0,0,00000000
0C9A4249DB69,2020-04-10,02:00:30,29.7,51.5,4,6,7,489,0,-2,0,58,69,80,99,-3,0,57,0.0,0.0,25.039288,121.612939,0,0,0,0,0,0,0,0,0,0,0,0,0,00000000
0C9A4249DB69,2020-04-10,02:00:45,29.7,51.5,4,6,7,488,0,-3,0,57,65,75,85,-2,-1,58,0.0,0.0,25.039288,121.612939,0,0,0,0,0,0,0,0,0,0,0,0,0,00000000
0C9A4249DB69,2020-04-10,02:01:00,29.7,51.5,3,5,6,489,0,-2,-1,58,81,97,95,-3,0,57,0.0,0.0,25.039288,121.612939,0,0,0,0,0,0,0,0,0,0,0,0,0,00000000
0C9A4249DB69,2020-04-10,02:01:15,29.7,51.5,4,7,7,490,0,-3,0,57,92,89,105,-3,-1,58,0.0,0.0,25.039288,121.612939,0,0,0,0,0,0,0,0,0,0,0,0,0,00000000
0C9A4249DB69,2020-04-10,02:01:30,29.7,51.5,4,7,7,489,0,-3,-1,58,104,78,101,-3,-1,57,0.0,0.0,25.039288,121.612939,0,0,0,0,0,0,0,0,0,0,0,0,0,00000000
0C9A4249DB69,2020-04-10,02:01:45,29.7,51.5,4,6,7,489,0,-3,-1,57,78,90,89,-3,-1,58,0.0,0.0,25.039288,121.612939,0,0,0,0,0,0,0,0,0,0,0,0,0,00000000
0C9A4249DB69,2020-04-10,02:02:00,29.7,51.5,4,7,7,490,0,-3,-1,58,78,88,100,-3,-1,58,0.0,0.0,25.039288,121.612939,0,0,0,0,0,0,0,0,0,0,0,0,0,00000000
0C9A4249DB69,2020-04-10,02:02:15,29.7,51.5,4,7,7,489,0,-3,-1,58,84,90,105,-3,-1,57,0.0,0.0,25.039288,121.612939,0,0,0,0,0,0,0,0,0,0,0,0,0,00000000
0C9A4249DB69,2020-04-10,02:02:30,29.7,51.5,5,7,7,490,0,-3,-1,57,90,94,112,-3,-1,57,0.0,0.0,25.039288,121.612939,0,0,0,0,0,0,0,0,0,0,0,0,0,00000000
0C9A4249DB69,2020-04-10,02:02:45,29.7,51.5,4,7,7,489,0,-3,-1,57,84,94,105,-3,-1,58,0.0,0.0,25.039288,121.612939,0,0,0,0,0,0,0,0,0,0,0,0,0,00000000
0C9A4249DB69,2020-04-10,02:03:00,29.7,51.5,4,7,7,489,0,-3,-1,58,98,88,103,-3,-1,57,0.0,0.0,25.039288,121.612939,0,0,0,0,0,0,0,0,0,0,0,0,0,00000000
0C9A4249DB69,2020-04-10,02:03:15,29.7,51.5,4,6,6,488,0,-3,-1,57,78,88,89,-3,-1,58,0.0,0.0,25.039288,121.612939,0,0,0,0,0,0,0,0,0,0,0,0,0,00000000
0C9A4249DB69,2020-04-10,02:03:30,29.7,51.5,3,6,6,488,0,-3,-1,58,94,80,107,-3,-1,57,0.0,0.0,25.039288,121.612939,0,0,0,0,0,0,0,0,0,0,0,0,0,00000000
0C9A4249DB69,2020-04-10,02:03:45,29.7,51.5,4,6,6,488,0,-3,-1,57,74,86,88,-3,-1,57,0.0,0.0,25.039288,121.612939,0,0,0,0,0,0,0,0,0,0,0,0,0,00000000
0C9A4249DB69,2020-04-10,02:04:00,29.7,51.4,4,6,6,488,0,-3,-1,57,80,80,84,-3,-1,57,0.0,0.0,25.039288,121.612939,0,0,0,0,0,0,0,0,0,0,0,0,0,00000000
0C9A4249DB69,2020-04-10,02:04:15,29.7,51.5,4,7,7,488,0,-3,-1,57,70,70,90,-3,-1,57,0.0,0.0,25.039288,121.612939,0,0,0,0,0,0,0,0,0,0,0,0,0,00000000
0C9A4249DB69,2020-04-10,02:04:30,29.7,51.5,4,7,7,488,0,-3,-1,57,126,118,126,-3,-1,57,0.0,0.0,25.039288,121.612939,0,0,0,0,0,0,0,0,0,0,0,0,0,00000000
0C9A4249DB69,2020-04-10,02:04:45,29.7,51.5,5,8,8,488,0,-3,-1,57,80,82,82,-3,-1,57,0.0,0.0,25.039288,121.612939,0,0,0,0,0,0,0,0,0,0,0,0,0,00000000
0C9A4249DB69,2020-04-10,02:05:00,29.7,51.5,4,7,7,488,0,-3,-1,57,87,91,95,-2,0,58,0.0,0.0,25.039288,121.612939,0,0,0,0,0,0,0,0,0,0,0,0,0,00000000
0C9A4249DB69,2020-04-10,02:05:15,29.7,51.5,4,6,6,487,0,-2,0,58,81,65,84,-1,1,58,0.0,0.0,25.039288,121.612939,0,0,0,0,0,0,0,0,0,0,0,0,0,00000000
0C9A4249DB69,2020-04-10,02:05:30,29.7,51.5,4,6,6,487,0,-1,1,58,105,94,119,-2,-1,57,0.0,0.0,25.039288,121.612939,0,0,0,0,0,0,0,0,0,0,0,0,0,00000000
0C9A4249DB69,2020-04-10,02:05:45,29.7,51.5,4,6,7,487,0,-2,-1,57,97,88,98,-3,-1,57,0.0,0.0,25.039288,121.612939,0,0,0,0,0,0,0,0,0,0,0,0,0,00000000
0C9A4249DB69,2020-04-10,02:06:00,29.7,51.5,4,7,7,488,0,-3,-1,57,90,84,89,-3,-1,58,0.0,0.0,25.039288,121.612939,0,0,0,0,0,0,0,0,0,0,0,0,0,00000000
0C9A4249DB69,2020-04-10,02:06:15,29.7,51.5,4,7,7,487,0,-3,-1,58,86,96,93,-3,-1,57,0.0,0.0,25.039288,121.612939,0,0,0,0,0,0,0,0,0,0,0,0,0,00000000
0C9A4249DB69,2020-04-10,02:06:30,29.7,51.5,4,6,7,487,0,-3,-1,57,80,76,94,-3,-1,57,0.0,0.0,25.039288,121.612939,0,0,0,0,0,0,0,0,0,0,0,0,0,00000000
0C9A4249DB69,2020-04-10,02:06:45,29.7,51.5,4,6,6,487,0,-3,-1,57,86,84,94,-3,-1,57,0.0,0.0,25.039288,121.612939,0,0,0,0,0,0,0,0,0,0,0,0,0,00000000
0C9A4249DB69,2020-04-10,02:07:00,29.7,51.5,4,6,6,486,0,-3,-1,57,82,74,92,-3,-1,57,0.0,0.0,25.039288,121.612939,0,0,0,0,0,0,0,0,0,0,0,0,0,00000000
0C9A4249DB69,2020-04-10,02:07:15,29.7,51.5,4,6,6,486,0,-3,-1,57,83,77,84,-2,0,57,0.0,0.0,25.039288,121.612939,0,0,0,0,0,0,0,0,0,0,0,0,0,00000000
0C9A4249DB69,2020-04-10,02:07:30,29.7,51.5,5,7,7,486,0,-2,0,57,91,71,91,-3,-1,58,0.0,0.0,25.039288,121.612939,0,0,0,0,0,0,0,0,0,0,0,0,0,00000000
0C9A4249DB69,2020-04-10,02:07:45,29.7,51.5,5,7,7,486,0,-3,-1,58,90,72,87,-3,-1,57,0.0,0.0,25.039288,121.612939,0,0,0,0,0,0,0,0,0,0,0,0,0,00000000
0C9A4249DB69,2020-04-10,02:08:00,29.7,51.5,4,6,7,486,0,-3,-1,57,120,90,116,-3,-1,57,0.0,0.0,25.039288,121.612939,0,0,0,0,0,0,0,0,0,0,0,0,0,00000000
0C9A4249DB69,2020-04-10,02:08:15,29.7,51.5,4,7,7,486,0,-3,-1,57,94,73,84,-1,0,59,0.0,0.0,25.039288,121.612939,0,0,0,0,0,0,0,0,0,0,0,0,0,00000000
0C9A4249DB69,2020-04-10,02:08:30,29.7,51.5,4,6,7,486,0,-1,0,59,92,77,90,-3,-1,57,0.0,0.0,25.039288,121.612939,0,0,0,0,0,0,0,0,0,0,0,0,0,00000000
0C9A4249DB69,2020-04-10,02:08:45,29.7,51.5,4,7,7,486,0,-3,-1,57,81,92,93,-2,-1,58,0.0,0.0,25.039288,121.612939,0,0,0,0,0,0,0,0,0,0,0,0,0,00000000
0C9A4249DB69,2020-04-10,02:09:00,29.7,51.5,4,7,7,486,0,-2,-1,58,124,101,126,-2,0,58,0.0,0.0,25.039288,121.612939,0,0,0,0,0,0,0,0,0,0,0,0,0,00000000
0C9A4249DB69,2020-04-10,02:09:15,29.7,51.5,5,7,7,486,0,-2,0,58,95,85,101,-3,-1,57,0.0,0.0,25.039288,121.612939,0,0,0,0,0,0,0,0,0,0,0,0,0,00000000
0C9A4249DB69,2020-04-10,02:09:30,29.7,51.5,4,7,7,486,0,-3,-1,57,80,92,90,-3,-1,57,0.0,0.0,25.039288,121.612939,0,0,0,0,0,0,0,0,0,0,0,0,0,00000000
0C9A4249DB69,2020-04-10,02:09:45,29.7,51.5,3,5,5,486,0,-3,-1,57,99,90,85,-2,-1,58,0.0,0.0,25.039288,121.612939,0,0,0,0,0,0,0,0,0,0,0,0,0,00000000
0C9A4249DB69,2020-04-10,02:10:00,29.7,51.5,3,5,5,486,0,-2,-1,58,80,65,87,-4,-2,57,0.0,0.0,25.039288,121.612939,0,0,0,0,0,0,0,0,0,0,0,0,0,00000000
0C9A4249DB69,2020-04-10,02:10:15,29.7,51.5,4,6,7,486,0,-4,-2,57,98,114,105,-2,0,58,0.0,0.0,25.039288,121.612939,0,0,0,0,0,0,0,0,0,0,0,0,0,00000000
0C9A4249DB69,2020-04-10,02:10:30,29.7,51.5,4,7,7,486,0,-2,0,58,69,53,79,-3,-1,57,0.0,0.0,25.039288,121.612939,0,0,0,0,0,0,0,0,0,0,0,0,0,00000000
0C9A4249DB69,2020-04-10,02:10:45,29.7,51.5,4,7,7,487,0,-3,-1,57,94,78,87,-3,-1,58,0.0,0.0,25.039288,121.612939,0,0,0,0,0,0,0,0,0,0,0,0,0,00000000
0C9A4249DB69,2020-04-10,02:11:00,29.7,51.5,4,7,7,486,0,-3,-1,58,82,97,106,-3,0,58,0.0,0.0,25.039288,121.612939,0,0,0,0,0,0,0,0,0,0,0,0,0,00000000
0C9A4249DB69,2020-04-10,02:11:15,29.7,51.5,4,6,6,486,0,-3,0,58,112,89,111,-3,-1,57,0.0,0.0,25.039288,121.612939,0,0,0,0,0,0,0,0,0,0,0,0,0,00000000
0C9A4249DB69,2020-04-10,02:11:30,29.7,51.5,4,6,6,486,0,-3,-1,57,102,92,103,-3,-1,58,0.0,0.0,25.039288,121.612939,0,0,0,0,0,0,0,0,0,0,0,0,0,00000000
0C9A4249DB69,2020-04-10,02:11:45,29.7,51.5,3,6,7,486,0,-3,-1,58,102,88,109,-3,-1,57,0.0,0.0,25.039288,121.612939,0,0,0,0,0,0,0,0,0,0,0,0,0,00000000
0C9A4249DB69,2020-04-10,02:12:00,29.7,51.5,4,7,8,486,0,-3,-1,57,104,90,94,-3,-1,57,0.0,0.0,25.039288,121.612939,0,0,0,0,0,0,0,0,0,0,0,0,0,00000000
0C9A4249DB69,2020-04-10,02:12:15,29.7,51.5,3,6,8,487,0,-3,-1,57,84,74,83,-3,-1,58,0.0,0.0,25.039288,121.612939,0,0,0,0,0,0,0,0,0,0,0,0,0,00000000
0C9A4249DB69,2020-04-10,02:12:30,29.7,51.5,4,7,8,488,0,-3,-1,58,111,95,105,-2,0,57,0.0,0.0,25.039288,121.612939,0,0,0,0,0,0,0,0,0,0,0,0,0,00000000
0C9A4249DB69,2020-04-10,02:12:45,29.7,51.5,5,7,8,487,0,-2,0,57,99,91,102,-3,-1,57,0.0,0.0,25.039288,121.612939,0,0,0,0,0,0,0,0,0,0,0,0,0,00000000
0C9A4249DB69,2020-04-10,02:13:00,29.7,51.5,5,7,8,487,0,-3,-1,57,102,94,98,-3,-1,57,0.0,0.0,25.039288,121.612939,0,0,0,0,0,0,0,0,0,0,0,0,0,00000000
0C9A4249DB69,2020-04-10,02:13:15,29.7,51.5,4,7,9,487,0,-3,-1,57,92,82,98,-3,-1,57,0.0,0.0,25.039288,121.612939,0,0,0,0,0,0,0,0,0,0,0,0,0,00000000
0C9A4249DB69,2020-04-10,02:13:30,29.7,51.5,4,7,9,486,0,-3,-1,57,88,80,99,-3,-1,58,0.0,0.0,25.039288,121.612939,0,0,0,0,0,0,0,0,0,0,0,0,0,00000000
0C9A4249DB69,2020-04-10,02:13:45,29.7,51.5,4,6,8,487,0,-3,-1,58,73,63,67,-2,0,57,0.0,0.0,25.039288,121.612939,0,0,0,0,0,0,0,0,0,0,0,0,0,00000000
0C9A4249DB69,2020-04-10,02:14:00,29.7,51.5,4,6,8,486,0,-2,0,57,91,83,96,-3,-1,57,0.0,0.0,25.039288,121.612939,0,0,0,0,0,0,0,0,0,0,0,0,0,00000000
0C9A4249DB69,2020-04-10,02:14:15,29.7,51.5,4,7,8,486,0,-3,-1,57,80,76,86,-3,-1,57,0.0,0.0,25.039288,121.612939,0,0,0,0,0,0,0,0,0,0,0,0,0,00000000
0C9A4249DB69,2020-04-10,02:14:30,29.7,51.5,4,7,7,486,0,-3,-1,57,90,96,92,-3,-1,57,0.0,0.0,25.039288,121.612939,0,0,0,0,0,0,0,0,0,0,0,0,0,00000000
0C9A4249DB69,2020-04-10,02:14:45,29.7,51.5,4,7,7,486,0,-3,-1,57,87,92,101,-2,-1,58,0.0,0.0,25.039288,121.612939,0,0,0,0,0,0,0,0,0,0,0,0,0,00000000
0C9A4249DB69,2020-04-10,02:15:00,29.7,51.6,4,6,6,486,0,-2,-1,58,93,92,111,-3,-1,57,0.0,0.0,25.039288,121.612939,0,0,0,0,0,0,0,0,0,0,0,0,0,00000000
0C9A4249DB69,2020-04-10,02:15:15,29.7,51.5,4,6,7,486,0,-3,-1,57,92,108,95,-3,-1,58,0.0,0.0,25.039288,121.612939,0,0,0,0,0,0,0,0,0,0,0,0,0,00000000
0C9A4249DB69,2020-04-10,02:15:30,29.7,51.5,3,6,7,486,0,-3,-1,58,93,78,89,0,1,59,0.0,0.0,25.039288,121.612939,0,0,0,0,0,0,0,0,0,0,0,0,0,00000000
0C9A4249DB69,2020-04-10,02:15:45,29.7,51.5,4,7,7,486,0,0,1,59,88,78,90,-2,-1,57,0.0,0.0,25.039288,121.612939,0,0,0,0,0,0,0,0,0,0,0,0,0,00000000
0C9A4249DB69,2020-04-10,02:16:00,29.7,51.5,4,7,7,486,0,-2,-1,57,83,96,78,-3,-1,57,0.0,0.0,25.039288,121.612939,0,0,0,0,0,0,0,0,0,0,0,0,0,00000000
0C9A4249DB69,2020-04-10,02:16:15,29.7,51.5,5,8,8,486,0,-3,-1,57,92,106,96,-3,-1,57,0.0,0.0,25.039288,121.612939,0,0,0,0,0,0,0,0,0,0,0,0,0,00000000
0C9A4249DB69,2020-04-10,02:16:30,29.7,51.5,3,6,6,487,0,-3,-1,57,99,99,109,-2,0,58,0.0,0.0,25.039288,121.612939,0,0,0,0,0,0,0,0,0,0,0,0,0,00000000
0C9A4249DB69,2020-04-10,02:16:45,29.7,51.5,5,7,7,487,0,-2,0,58,89,87,90,-3,-1,58,0.0,0.0,25.039288,121.612939,0,0,0,0,0,0,0,0,0,0,0,0,0,00000000
0C9A4249DB69,2020-04-10,02:17:00,29.7,51.5,4,7,7,487,0,-3,-1,58,94,100,106,-3,-1,58,0.0,0.0,25.039288,121.612939,0,0,0,0,0,0,0,0,0,0,0,0,0,00000000
0C9A4249DB69,2020-04-10,02:17:15,29.7,51.5,4,7,7,486,0,-3,-1,58,84,72,91,-3,-1,57,0.0,0.0,25.039288,121.612939,0,0,0,0,0,0,0,0,0,0,0,0,0,00000000
0C9A4249DB69,2020-04-10,02:17:30,29.7,51.5,4,7,7,487,0,-3,-1,57,78,80,116,-3,-1,57,0.0,0.0,25.039288,121.612939,0,0,0,0,0,0,0,0,0,0,0,0,0,00000000
0C9A4249DB69,2020-04-10,02:17:45,29.7,51.6,4,6,7,487,0,-3,-1,57,106,88,106,-3,-1,57,0.0,0.0,25.039288,121.612939,0,0,0,0,0,0,0,0,0,0,0,0,0,00000000
0C9A4249DB69,2020-04-10,02:18:00,29.7,51.5,4,5,6,487,0,-3,-1,57,91,87,99,-2,0,58,0.0,0.0,25.039288,121.612939,0,0,0,0,0,0,0,0,0,0,0,0,0,00000000
0C9A4249DB69,2020-04-10,02:18:15,29.7,51.6,4,6,6,488,0,-2,0,58,109,89,97,-3,-1,57,0.0,0.0,25.039288,121.612939,0,0,0,0,0,0,0,0,0,0,0,0,0,00000000
0C9A4249DB69,2020-04-10,02:18:30,29.7,51.5,4,6,7,488,0,-3,-1,57,81,82,98,-4,-1,57,0.0,0.0,25.039288,121.612939,0,0,0,0,0,0,0,0,0,0,0,0,0,00000000
0C9A4249DB69,2020-04-10,02:18:45,29.7,51.6,4,6,7,488,0,-4,-1,57,96,95,93,-2,0,58,0.0,0.0,25.039288,121.612939,0,0,0,0,0,0,0,0,0,0,0,0,0,00000000
0C9A4249DB69,2020-04-10,02:19:00,29.7,51.5,4,6,7,486,0,-2,0,58,88,76,98,-2,0,58,0.0,0.0,25.039288,121.612939,0,0,0,0,0,0,0,0,0,0,0,0,0,00000000
0C9A4249DB69,2020-04-10,02:19:15,29.7,51.6,3,6,6,486,0,-2,0,58,87,80,100,-3,0,58,0.0,0.0,25.039288,121.612939,0,0,0,0,0,0,0,0,0,0,0,0,0,00000000
0C9A4249DB69,2020-04-10,02:19:30,29.7,51.6,3,5,5,487,0,-3,0,58,89,80,100,-2,0,58,0.0,0.0,25.039288,121.612939,0,0,0,0,0,0,0,0,0,0,0,0,0,00000000
0C9A4249DB69,2020-04-10,02:19:45,29.7,51.5,4,6,6,486,0,-2,0,58,95,82,102,-3,0,58,0.0,0.0,25.039288,121.612939,0,0,0,0,0,0,0,0,0,0,0,0,0,00000000
0C9A4249DB69,2020-04-10,02:20:00,29.7,51.6,5,7,7,488,0,-3,0,58,98,87,95,-3,-1,57,0.0,0.0,25.039288,121.612939,0,0,0,0,0,0,0,0,0,0,0,0,0,00000000
0C9A4249DB69,2020-04-10,02:20:15,29.7,51.5,5,6,7,488,0,-3,-1,57,113,95,97,-2,0,58,0.0,0.0,25.039288,121.612939,0,0,0,0,0,0,0,0,0,0,0,0,0,00000000
0C9A4249DB69,2020-04-10,02:20:30,29.7,51.5,4,7,7,488,0,-2,0,58,85,92,88,-3,0,58,0.0,0.0,25.039288,121.612939,0,0,0,0,0,0,0,0,0,0,0,0,0,00000000
0C9A4249DB69,2020-04-10,02:20:45,29.7,51.5,4,6,6,487,0,-3,0,58,72,65,77,-3,-1,57,0.0,0.0,25.039288,121.612939,0,0,0,0,0,0,0,0,0,0,0,0,0,00000000
0C9A4249DB69,2020-04-10,02:21:00,29.7,51.6,3,6,6,486,0,-3,-1,57,70,83,89,-3,0,58,0.0,0.0,25.039288,121.612939,0,0,0,0,0,0,0,0,0,0,0,0,0,00000000
0C9A4249DB69,2020-04-10,02:21:15,29.7,51.5,2,5,5,486,0,-3,0,58,88,87,104,-3,-1,58,0.0,0.0,25.039288,121.612939,0,0,0,0,0,0,0,0,0,0,0,0,0,00000000
0C9A4249DB69,2020-04-10,02:21:30,29.6,51.6,3,5,5,486,0,-3,-1,58,112,106,104,-3,-1,58,0.0,0.0,25.039288,121.612939,0,0,0,0,0,0,0,0,0,0,0,0,0,00000000
0C9A4249DB69,2020-04-10,02:21:45,29.7,51.6,3,5,6,485,0,-3,-1,58,111,87,110,-4,-2,56,0.0,0.0,25.039288,121.612939,0,0,0,0,0,0,0,0,0,0,0,0,0,00000000
0C9A4249DB69,2020-04-10,02:22:00,29.7,51.5,3,5,6,486,0,-4,-2,56,94,105,94,-2,-1,58,0.0,0.0,25.039288,121.612939,0,0,0,0,0,0,0,0,0,0,0,0,0,00000000
0C9A4249DB69,2020-04-10,02:22:15,29.7,51.5,3,5,6,486,0,-2,-1,58,95,96,87,-3,-1,57,0.0,0.0,25.039288,121.612939,0,0,0,0,0,0,0,0,0,0,0,0,0,00000000
0C9A4249DB69,2020-04-10,02:22:30,29.7,51.6,4,7,7,486,0,-3,-1,57,66,74,88,-3,-1,57,0.0,0.0,25.039288,121.612939,0,0,0,0,0,0,0,0,0,0,0,0,0,00000000
0C9A4249DB69,2020-04-10,02:22:45,29.7,51.6,3,6,7,485,0,-3,-1,57,98,87,95,-3,0,58,0.0,0.0,25.039288,121.612939,0,0,0,0,0,0,0,0,0,0,0,0,0,00000000
0C9A4249DB69,2020-04-10,02:23:00,29.7,51.5,4,6,6,486,0,-3,0,58,98,108,110,-3,0,58,0.0,0.0,25.039288,121.612939,0,0,0,0,0,0,0,0,0,0,0,0,0,00000000
0C9A4249DB69,2020-04-10,02:23:15,29.7,51.6,4,6,6,486,0,-3,0,58,88,69,100,-3,-1,58,0.0,0.0,25.039288,121.612939,0,0,0,0,0,0,0,0,0,0,0,0,0,00000000
0C9A4249DB69,2020-04-10,02:23:30,29.7,51.5,4,6,6,486,0,-3,-1,58,120,109,119,-3,0,57,0.0,0.0,25.039288,121.612939,0,0,0,0,0,0,0,0,0,0,0,0,0,00000000
0C9A4249DB69,2020-04-10,02:23:45,29.7,51.6,4,6,7,486,0,-3,0,57,99,75,88,-4,-1,57,0.0,0.0,25.039288,121.612939,0,0,0,0,0,0,0,0,0,0,0,0,0,00000000
0C9A4249DB69,2020-04-10,02:24:00,29.6,51.5,4,6,6,486,0,-4,-1,57,99,93,93,-3,0,58,0.0,0.0,25.039288,121.612939,0,0,0,0,0,0,0,0,0,0,0,0,0,00000000
0C9A4249DB69,2020-04-10,02:24:15,29.7,51.6,4,6,6,486,0,-3,0,58,102,95,101,-3,-1,57,0.0,0.0,25.039288,121.612939,0,0,0,0,0,0,0,0,0,0,0,0,0,00000000
0C9A4249DB69,2020-04-10,02:24:30,29.7,51.5,4,7,7,486,0,-3,-1,57,89,91,111,-2,0,58,0.0,0.0,25.039288,121.612939,0,0,0,0,0,0,0,0,0,0,0,0,0,00000000
0C9A4249DB69,2020-04-10,02:24:45,29.7,51.5,4,7,7,486,0,-2,0,58,91,69,78,-3,-1,58,0.0,0.0,25.039288,121.612939,0,0,0,0,0,0,0,0,0,0,0,0,0,00000000
0C9A4249DB69,2020-04-10,02:25:00,29.7,51.6,4,7,7,486,0,-3,-1,58,122,102,109,-3,-1,57,0.0,0.0,25.039288,121.612939,0,0,0,0,0,0,0,0,0,0,0,0,0,00000000
0C9A4249DB69,2020-04-10,02:25:15,29.7,51.5,4,7,7,486,0,-3,-1,57,80,62,80,-3,-1,57,0.0,0.0,25.039288,121.612939,0,0,0,0,0,0,0,0,0,0,0,0,0,00000000
0C9A4249DB69,2020-04-10,02:25:30,29.7,51.6,4,7,7,486,0,-3,-1,57,83,85,105,-2,0,58,0.0,0.0,25.039288,121.612939,0,0,0,0,0,0,0,0,0,0,0,0,0,00000000
0C9A4249DB69,2020-04-10,02:25:45,29.7,51.5,4,6,6,486,0,-2,0,58,82,87,85,-4,-1,57,0.0,0.0,25.039288,121.612939,0,0,0,0,0,0,0,0,0,0,0,0,0,00000000
0C9A4249DB69,2020-04-10,02:26:00,29.7,51.6,4,6,6,486,0,-4,-1,57,95,112,100,-3,-1,57,0.0,0.0,25.039288,121.612939,0,0,0,0,0,0,0,0,0,0,0,0,0,00000000
0C9A4249DB69,2020-04-10,02:26:15,29.7,51.6,4,6,6,486,0,-3,-1,57,105,85,97,-2,0,58,0.0,0.0,25.039288,121.612939,0,0,0,0,0,0,0,0,0,0,0,0,0,00000000
0C9A4249DB69,2020-04-10,02:26:30,29.7,51.6,4,7,7,486,0,-2,0,58,89,83,94,-3,-1,58,0.0,0.0,25.039288,121.612939,0,0,0,0,0,0,0,0,0,0,0,0,0,00000000
0C9A4249DB69,2020-04-10,02:26:45,29.7,51.6,4,7,7,486,0,-3,-1,58,80,80,97,-3,-1,57,0.0,0.0,25.039288,121.612939,0,0,0,0,0,0,0,0,0,0,0,0,0,00000000
0C9A4249DB69,2020-04-10,02:27:00,29.7,51.6,5,7,8,485,0,-3,-1,57,81,66,77,-2,-1,58,0.0,0.0,25.039288,121.612939,0,0,0,0,0,0,0,0,0,0,0,0,0,00000000
0C9A4249DB69,2020-04-10,02:27:15,29.7,51.5,5,7,8,486,0,-2,-1,58,81,74,78,-3,-1,58,0.0,0.0,25.039288,121.612939,0,0,0,0,0,0,0,0,0,0,0,0,0,00000000
0C9A4249DB69,2020-04-10,02:27:30,29.7,51.6,4,6,6,486,0,-3,-1,58,100,102,104,-3,-1,56,0.0,0.0,25.039288,121.612939,0,0,0,0,0,0,0,0,0,0,0,0,0,00000000
0C9A4249DB69,2020-04-10,02:27:45,29.7,51.5,4,6,6,485,0,-3,-1,56,92,87,106,-3,0,58,0.0,0.0,25.039288,121.612939,0,0,0,0,0,0,0,0,0,0,0,0,0,00000000
0C9A4249DB69,2020-04-10,02:28:00,29.6,51.6,3,5,6,485,0,-3,0,58,112,105,113,-3,-1,57,0.0,0.0,25.039288,121.612939,0,0,0,0,0,0,0,0,0,0,0,0,0,00000000
0C9A4249DB69,2020-04-10,02:28:15,29.7,51.6,4,5,6,485,0,-3,-1,57,90,88,84,-3,-1,57,0.0,0.0,25.039288,121.612939,0,0,0,0,0,0,0,0,0,0,0,0,0,00000000
0C9A4249DB69,2020-04-10,02:28:30,29.7,51.6,4,6,7,485,0,-3,-1,57,86,70,80,-3,-1,57,0.0,0.0,25.039288,121.612939,0,0,0,0,0,0,0,0,0,0,0,0,0,00000000
0C9A4249DB69,2020-04-10,02:28:45,29.7,51.6,4,6,7,485,0,-3,-1,57,92,81,87,-3,0,58,0.0,0.0,25.039288,121.612939,0,0,0,0,0,0,0,0,0,0,0,0,0,00000000
0C9A4249DB69,2020-04-10,02:29:00,29.7,51.6,4,6,6,484,0,-3,0,58,110,111,124,-3,-1,58,0.0,0.0,25.039288,121.612939,0,0,0,0,0,0,0,0,0,0,0,0,0,00000000
0C9A4249DB69,2020-04-10,02:29:15,29.7,51.6,4,6,6,484,0,-3,-1,58,76,77,92,-3,0,58,0.0,0.0,25.039288,121.612939,0,0,0,0,0,0,0,0,0,0,0,0,0,00000000
0C9A4249DB69,2020-04-10,02:29:30,29.7,51.6,4,6,6,485,0,-3,0,58,85,75,92,-2,-1,58,0.0,0.0,25.039288,121.612939,0,0,0,0,0,0,0,0,0,0,0,0,0,00000000
0C9A4249DB69,2020-04-10,02:29:45,29.7,51.6,4,6,7,486,0,-2,-1,58,97,98,109,-3,-1,57,0.0,0.0,25.039288,121.612939,0,0,0,0,0,0,0,0,0,0,0,0,0,00000000
0C9A4249DB69,2020-04-10,02:30:00,29.6,51.6,3,5,6,485,0,-3,-1,57,82,81,98,-3,0,57,0.0,0.0,25.039288,121.612939,0,0,0,0,0,0,0,0,0,0,0,0,0,00000000
0C9A4249DB69,2020-04-10,02:30:15,29.7,51.6,3,6,6,485,0,-3,0,57,88,91,97,-3,-1,58,0.0,0.0,25.039288,121.612939,0,0,0,0,0,0,0,0,0,0,0,0,0,00000000
0C9A4249DB69,2020-04-10,02:30:30,29.6,51.6,3,6,7,485,0,-3,-1,58,105,92,105,-2,-1,57,0.0,0.0,25.039288,121.612939,0,0,0,0,0,0,0,0,0,0,0,0,0,00000000
0C9A4249DB69,2020-04-10,02:30:45,29.6,51.5,4,6,6,485,0,-2,-1,57,81,87,86,-3,0,57,0.0,0.0,25.039288,121.612939,0,0,0,0,0,0,0,0,0,0,0,0,0,00000000
0C9A4249DB69,2020-04-10,02:31:00,29.7,51.6,4,6,6,485,0,-3,0,57,85,87,108,-2,-1,57,0.0,0.0,25.039288,121.612939,0,0,0,0,0,0,0,0,0,0,0,0,0,00000000
0C9A4249DB69,2020-04-10,02:31:15,29.7,51.6,4,6,6,485,0,-2,-1,57,67,77,70,-3,-2,57,0.0,0.0,25.039288,121.612939,0,0,0,0,0,0,0,0,0,0,0,0,0,00000000
0C9A4249DB69,2020-04-10,02:31:30,29.7,51.6,3,4,5,484,0,-3,-2,57,99,89,112,-2,-1,57,0.0,0.0,25.039288,121.612939,0,0,0,0,0,0,0,0,0,0,0,0,0,00000000
0C9A4249DB69,2020-04-10,02:31:45,29.7,51.6,3,5,5,484,0,-2,-1,57,93,92,90,-3,-1,57,0.0,0.0,25.039288,121.612939,0,0,0,0,0,0,0,0,0,0,0,0,0,00000000
0C9A4249DB69,2020-04-10,02:32:00,29.6,51.6,4,5,5,484,0,-3,-1,57,106,94,99,-3,-1,58,0.0,0.0,25.039288,121.612939,0,0,0,0,0,0,0,0,0,0,0,0,0,00000000
0C9A4249DB69,2020-04-10,02:32:15,29.7,51.6,3,5,6,484,0,-3,-1,58,74,90,99,-3,-1,57,0.0,0.0,25.039288,121.612939,0,0,0,0,0,0,0,0,0,0,0,0,0,00000000
0C9A4249DB69,2020-04-10,02:32:30,29.7,51.6,4,6,6,483,0,-3,-1,57,76,94,84,-3,-1,57,0.0,0.0,25.039288,121.612939,0,0,0,0,0,0,0,0,0,0,0,0,0,00000000
0C9A4249DB69,2020-04-10,02:32:45,29.6,51.6,3,5,7,482,0,-3,-1,57,94,98,110,-3,-1,57,0.0,0.0,25.039288,121.612939,0,0,0,0,0,0,0,0,0,0,0,0,0,00000000
0C9A4249DB69,2020-04-10,02:33:00,29.6,51.6,3,5,7,483,0,-3,-1,57,84,82,102,-3,-1,57,0.0,0.0,25.039288,121.612939,0,0,0,0,0,0,0,0,0,0,0,0,0,00000000
0C9A4249DB69,2020-04-10,02:33:15,29.6,51.6,3,5,6,484,0,-3,-1,57,89,80,95,-2,-1,58,0.0,0.0,25.039288,121.612939,0,0,0,0,0,0,0,0,0,0,0,0,0,00000000
0C9A4249DB69,2020-04-10,02:33:30,29.6,51.6,3,4,5,484,0,-2,-1,58,103,101,113,-3,0,57,0.0,0.0,25.039288,121.612939,0,0,0,0,0,0,0,0,0,0,0,0,0,00000000
0C9A4249DB69,2020-04-10,02:33:45,29.6,51.6,4,5,5,484,0,-3,0,57,98,87,96,-3,-1,57,0.0,0.0,25.039288,121.612939,0,0,0,0,0,0,0,0,0,0,0,0,0,00000000
0C9A4249DB69,2020-04-10,02:34:00,29.7,51.6,4,5,6,485,0,-3,-1,57,96,94,106,-3,-1,57,0.0,0.0,25.039288,121.612939,0,0,0,0,0,0,0,0,0,0,0,0,0,00000000
0C9A4249DB69,2020-04-10,02:34:15,29.6,51.5,3,5,6,485,0,-3,-1,57,80,74,85,-3,-1,58,0.0,0.0,25.039288,121.612939,0,0,0,0,0,0,0,0,0,0,0,0,0,00000000
0C9A4249DB69,2020-04-10,02:34:30,29.6,51.6,3,5,5,485,0,-3,-1,58,87,73,97,-2,0,57,0.0,0.0,25.039288,121.612939,0,0,0,0,0,0,0,0,0,0,0,0,0,00000000
0C9A4249DB69,2020-04-10,02:34:45,29.6,51.6,3,6,6,485,0,-2,0,57,85,91,98,-3,-1,57,0.0,0.0,25.039288,121.612939,0,0,0,0,0,0,0,0,0,0,0,0,0,00000000
0C9A4249DB69,2020-04-10,02:35:00,29.6,51.6,2,4,4,484,0,-3,-1,57,86,80,106,-3,-1,57,0.0,0.0,25.039288,121.612939,0,0,0,0,0,0,0,0,0,0,0,0,0,00000000
0C9A4249DB69,2020-04-10,02:35:15,29.6,51.6,2,4,4,484,0,-3,-1,57,91,90,107,-2,-1,58,0.0,0.0,25.039288,121.612939,0,0,0,0,0,0,0,0,0,0,0,0,0,00000000
0C9A4249DB69,2020-04-10,02:35:30,29.6,51.6,2,4,4,484,0,-2,-1,58,89,90,107,-3,-1,57,0.0,0.0,25.039288,121.612939,0,0,0,0,0,0,0,0,0,0,0,0,0,00000000
0C9A4249DB69,2020-04-10,02:35:45,29.6,51.6,4,6,6,484,0,-3,-1,57,82,85,91,-3,0,58,0.0,0.0,25.039288,121.612939,0,0,0,0,0,0,0,0,0,0,0,0,0,00000000
0C9A4249DB69,2020-04-10,02:36:00,29.6,51.6,4,6,7,484,0,-3,0,58,98,89,89,-3,-1,57,0.0,0.0,25.039288,121.612939,0,0,0,0,0,0,0,0,0,0,0,0,0,00000000
0C9A4249DB69,2020-04-10,02:36:15,29.6,51.6,4,6,7,484,0,-3,-1,57,82,92,84,-3,-1,57,0.0,0.0,25.039288,121.612939,0,0,0,0,0,0,0,0,0,0,0,0,0,00000000
0C9A4249DB69,2020-04-10,02:36:30,29.6,51.6,4,6,7,484,0,-3,-1,57,90,96,104,-3,-1,57,0.0,0.0,25.039288,121.612939,0,0,0,0,0,0,0,0,0,0,0,0,0,00000000
0C9A4249DB69,2020-04-10,02:36:45,29.6,51.6,4,6,7,483,0,-3,-1,57,114,101,103,-3,0,58,0.0,0.0,25.039288,121.612939,0,0,0,0,0,0,0,0,0,0,0,0,0,00000000
0C9A4249DB69,2020-04-10,02:37:00,29.6,51.6,4,6,7,483,0,-3,0,58,80,75,99,-3,-1,57,0.0,0.0,25.039288,121.612939,0,0,0,0,0,0,0,0,0,0,0,0,0,00000000
0C9A4249DB69,2020-04-10,02:37:15,29.6,51.6,4,6,7,484,0,-3,-1,57,94,86,92,-3,-1,57,0.0,0.0,25.039288,121.612939,0,0,0,0,0,0,0,0,0,0,0,0,0,00000000
0C9A4249DB69,2020-04-10,02:37:30,29.6,51.6,4,6,7,484,0,-3,-1,57,93,81,91,-2,0,58,0.0,0.0,25.039288,121.612939,0,0,0,0,0,0,0,0,0,0,0,0,0,00000000
0C9A4249DB69,2020-04-10,02:37:45,29.7,51.6,4,5,5,484,0,-2,0,58,118,98,124,-2,0,58,0.0,0.0,25.039288,121.612939,0,0,0,0,0,0,0,0,0,0,0,0,0,00000000
0C9A4249DB69,2020-04-10,02:38:00,29.6,51.6,4,6,6,484,0,-2,0,58,107,97,108,-3,-1,58,0.0,0.0,25.039288,121.612939,0,0,0,0,0,0,0,0,0,0,0,0,0,00000000
0C9A4249DB69,2020-04-10,02:38:15,29.6,51.6,4,6,6,484,0,-3,-1,58,93,86,83,-2,-1,57,0.0,0.0,25.039288,121.612939,0,0,0,0,0,0,0,0,0,0,0,0,0,00000000
0C9A4249DB69,2020-04-10,02:38:30,29.6,51.6,3,5,5,484,0,-2,-1,57,101,94,104,-3,-1,57,0.0,0.0,25.039288,121.612939,0,0,0,0,0,0,0,0,0,0,0,0,0,00000000
0C9A4249DB69,2020-04-10,02:38:45,29.7,51.6,3,5,5,484,0,-3,-1,57,91,68,99,-2,-1,58,0.0,0.0,25.039288,121.612939,0,0,0,0,0,0,0,0,0,0,0,0,0,00000000
0C9A4249DB69,2020-04-10,02:39:00,29.6,51.6,4,5,5,484,0,-2,-1,58,99,103,115,-3,0,57,0.0,0.0,25.039288,121.612939,0,0,0,0,0,0,0,0,0,0,0,0,0,00000000
0C9A4249DB69,2020-04-10,02:39:15,29.6,51.6,4,6,6,484,0,-3,0,57,82,87,90,-3,-1,57,0.0,0.0,25.039288,121.612939,0,0,0,0,0,0,0,0,0,0,0,0,0,00000000
0C9A4249DB69,2020-04-10,02:39:30,29.7,51.6,4,6,6,484,0,-3,-1,57,105,120,117,-2,-1,58,0.0,0.0,25.039288,121.612939,0,0,0,0,0,0,0,0,0,0,0,0,0,00000000
0C9A4249DB69,2020-04-10,02:39:45,29.6,51.6,4,6,6,484,0,-2,-1,58,94,91,100,-2,0,58,0.0,0.0,25.039288,121.612939,0,0,0,0,0,0,0,0,0,0,0,0,0,00000000
0C9A4249DB69,2020-04-10,02:40:00,29.6,51.6,4,6,7,484,0,-2,0,58,80,68,92,-2,0,58,0.0,0.0,25.039288,121.612939,0,0,0,0,0,0,0,0,0,0,0,0,0,00000000
0C9A4249DB69,2020-04-10,02:40:15,29.6,51.6,4,6,8,484,0,-2,0,58,85,63,79,-3,-1,57,0.0,0.0,25.039288,121.612939,0,0,0,0,0,0,0,0,0,0,0,0,0,00000000
0C9A4249DB69,2020-04-10,02:40:30,29.6,51.6,4,6,7,484,0,-3,-1,57,90,96,105,-1,1,58,0.0,0.0,25.039288,121.612939,0,0,0,0,0,0,0,0,0,0,0,0,0,00000000
0C9A4249DB69,2020-04-10,02:40:45,29.6,51.6,4,7,7,484,0,-1,1,58,66,81,86,-3,0,58,0.0,0.0,25.039288,121.612939,0,0,0,0,0,0,0,0,0,0,0,0,0,00000000
0C9A4249DB69,2020-04-10,02:41:00,29.6,51.6,3,6,6,483,0,-3,0,58,94,80,99,-3,0,57,0.0,0.0,25.039288,121.612939,0,0,0,0,0,0,0,0,0,0,0,0,0,00000000
0C9A4249DB69,2020-04-10,02:41:15,29.6,51.6,3,6,6,484,0,-3,0,57,78,81,81,-3,-1,58,0.0,0.0,25.039288,121.612939,0,0,0,0,0,0,0,0,0,0,0,0,0,00000000
0C9A4249DB69,2020-04-10,02:41:30,29.6,51.6,3,6,6,484,0,-3,-1,58,86,94,107,-3,-1,57,0.0,0.0,25.039288,121.612939,0,0,0,0,0,0,0,0,0,0,0,0,0,00000000
0C9A4249DB69,2020-04-10,02:41:45,29.6,51.6,4,7,7,483,0,-3,-1,57,75,77,89,-2,0,58,0.0,0.0,25.039288,121.612939,0,0,0,0,0,0,0,0,0,0,0,0,0,00000000
0C9A4249DB69,2020-04-10,02:42:00,29.6,51.6,4,7,7,483,0,-2,0,58,94,109,103,-4,-1,57,0.0,0.0,25.039288,121.612939,0,0,0,0,0,0,0,0,0,0,0,0,0,00000000
0C9A4249DB69,2020-04-10,02:42:15,29.6,51.6,4,7,7,484,0,-4,-1,57,93,90,91,-3,-1,58,0.0,0.0,25.039288,121.612939,0,0,0,0,0,0,0,0,0,0,0,0,0,00000000
0C9A4249DB69,2020-04-10,02:42:30,29.6,51.6,4,7,7,484,0,-3,-1,58,94,86,101,-3,-1,57,0.0,0.0,25.039288,121.612939,0,0,0,0,0,0,0,0,0,0,0,0,0,00000000
0C9A4249DB69,2020-04-10,02:42:45,29.6,51.6,3,6,6,483,0,-3,-1,57,91,91,98,-2,0,57,0.0,0.0,25.039288,121.612939,0,0,0,0,0,0,0,0,0,0,0,0,0,00000000
0C9A4249DB69,2020-04-10,02:43:00,29.6,51.6,4,7,7,483,0,-2,0,57,87,71,86,-3,-1,57,0.0,0.0,25.039288,121.612939,0,0,0,0,0,0,0,0,0,0,0,0,0,00000000
0C9A4249DB69,2020-04-10,02:43:15,29.6,51.6,3,6,6,485,0,-3,-1,57,78,79,93,-3,0,58,0.0,0.0,25.039288,121.612939,0,0,0,0,0,0,0,0,0,0,0,0,0,00000000
0C9A4249DB69,2020-04-10,02:43:30,29.6,51.6,3,6,6,485,0,-3,0,58,88,75,86,-3,-1,58,0.0,0.0,25.039288,121.612939,0,0,0,0,0,0,0,0,0,0,0,0,0,00000000
0C9A4249DB69,2020-04-10,02:43:45,29.6,51.6,3,5,5,485,0,-3,-1,58,72,66,81,-3,-1,57,0.0,0.0,25.039288,121.612939,0,0,0,0,0,0,0,0,0,0,0,0,0,00000000
0C9A4249DB69,2020-04-10,02:44:00,29.6,51.6,3,4,4,484,0,-3,-1,57,138,120,128,-3,-1,57,0.0,0.0,25.039288,121.612939,0,0,0,0,0,0,0,0,0,0,0,0,0,00000000
0C9A4249DB69,2020-04-10,02:44:15,29.6,51.6,3,4,5,484,0,-3,-1,57,98,82,104,-3,-1,57,0.0,0.0,25.039288,121.612939,0,0,0,0,0,0,0,0,0,0,0,0,0,00000000
0C9A4249DB69,2020-04-10,02:44:30,29.6,51.6,4,5,5,485,0,-3,-1,57,90,92,101,-3,-1,58,0.0,0.0,25.039288,121.612939,0,0,0,0,0,0,0,0,0,0,0,0,0,00000000
0C9A4249DB69,2020-04-10,02:44:45,29.6,51.6,4,5,5,484,0,-3,-1,58,84,98,95,-3,-1,57,0.0,0.0,25.039288,121.612939,0,0,0,0,0,0,0,0,0,0,0,0,0,00000000
0C9A4249DB69,2020-04-10,02:45:00,29.6,51.6,3,5,6,485,0,-3,-1,57,80,70,95,-3,-1,58,0.0,0.0,25.039288,121.612939,0,0,0,0,0,0,0,0,0,0,0,0,0,00000000
0C9A4249DB69,2020-04-10,02:45:15,29.6,51.6,3,5,6,485,0,-3,-1,58,83,60,82,-2,-1,58,0.0,0.0,25.039288,121.612939,0,0,0,0,0,0,0,0,0,0,0,0,0,00000000
0C9A4249DB69,2020-04-10,02:45:30,29.6,51.6,4,6,7,484,0,-2,-1,58,99,104,119,-3,-1,57,0.0,0.0,25.039288,121.612939,0,0,0,0,0,0,0,0,0,0,0,0,0,00000000
0C9A4249DB69,2020-04-10,02:45:45,29.6,51.6,4,5,6,484,0,-3,-1,57,82,82,119,-3,-1,58,0.0,0.0,25.039288,121.612939,0,0,0,0,0,0,0,0,0,0,0,0,0,00000000
0C9A4249DB69,2020-04-10,02:46:00,29.6,51.7,4,5,6,484,0,-3,-1,58,87,80,88,-2,-1,58,0.0,0.0,25.039288,121.612939,0,0,0,0,0,0,0,0,0,0,0,0,0,00000000
0C9A4249DB69,2020-04-10,02:46:15,29.6,51.6,3,4,4,485,0,-2,-1,58,77,91,103,-3,0,57,0.0,0.0,25.039288,121.612939,0,0,0,0,0,0,0,0,0,0,0,0,0,00000000
0C9A4249DB69,2020-04-10,02:46:30,29.6,51.6,4,6,6,484,0,-3,0,57,86,84,85,-3,0,58,0.0,0.0,25.039288,121.612939,0,0,0,0,0,0,0,0,0,0,0,0,0,00000000
0C9A4249DB69,2020-04-10,02:46:45,29.6,51.6,4,6,6,484,0,-3,0,58,78,71,82,-3,-1,58,0.0,0.0,25.039288,121.612939,0,0,0,0,0,0,0,0,0,0,0,0,0,00000000
0C9A4249DB69,2020-04-10,02:47:00,29.6,51.6,3,5,6,485,0,-3,-1,58,93,90,114,-6,-3,56,0.0,0.0,25.039288,121.612939,0,0,0,0,0,0,0,0,0,0,0,0,0,00000000
0C9A4249DB69,2020-04-10,02:47:15,29.6,51.6,3,5,6,484,0,-6,-3,56,96,80,95,-2,-1,57,0.0,0.0,25.039288,121.612939,0,0,0,0,0,0,0,0,0,0,0,0,0,00000000
0C9A4249DB69,2020-04-10,02:47:30,29.6,51.6,2,4,5,484,0,-2,-1,57,96,92,103,-2,-1,58,0.0,0.0,25.039288,121.612939,0,0,0,0,0,0,0,0,0,0,0,0,0,00000000
0C9A4249DB69,2020-04-10,02:47:45,29.6,51.6,3,5,6,485,0,-2,-1,58,113,98,118,-3,-1,58,0.0,0.0,25.039288,121.612939,0,0,0,0,0,0,0,0,0,0,0,0,0,00000000
0C9A4249DB69,2020-04-10,02:48:00,29.6,51.6,4,6,6,485,0,-3,-1,58,88,87,94,-3,-2,58,0.0,0.0,25.039288,121.612939,0,0,0,0,0,0,0,0,0,0,0,0,0,00000000
0C9A4249DB69,2020-04-10,02:48:15,29.6,51.6,2,4,5,484,0,-3,-2,58,66,83,106,-3,-1,58,0.0,0.0,25.039288,121.612939,0,0,0,0,0,0,0,0,0,0,0,0,0,00000000
0C9A4249DB69,2020-04-10,02:48:30,29.6,51.6,3,5,5,484,0,-3,-1,58,92,96,97,-3,-1,57,0.0,0.0,25.039288,121.612939,0,0,0,0,0,0,0,0,0,0,0,0,0,00000000
0C9A4249DB69,2020-04-10,02:48:45,29.6,51.6,3,5,5,484,0,-3,-1,57,96,82,108,-3,-1,57,0.0,0.0,25.039288,121.612939,0,0,0,0,0,0,0,0,0,0,0,0,0,00000000
0C9A4249DB69,2020-04-10,02:49:00,29.6,51.7,2,4,4,484,0,-3,-1,57,92,94,101,-3,-1,58,0.0,0.0,25.039288,121.612939,0,0,0,0,0,0,0,0,0,0,0,0,0,00000000
0C9A4249DB69,2020-04-10,02:49:15,29.6,51.6,3,5,5,484,0,-3,-1,58,74,69,78,-3,0,58,0.0,0.0,25.039288,121.612939,0,0,0,0,0,0,0,0,0,0,0,0,0,00000000
0C9A4249DB69,2020-04-10,02:49:30,29.6,51.6,4,5,5,484,0,-3,0,58,84,105,97,-3,-1,57,0.0,0.0,25.039288,121.612939,0,0,0,0,0,0,0,0,0,0,0,0,0,00000000
0C9A4249DB69,2020-04-10,02:49:45,29.6,51.6,4,6,6,484,0,-3,-1,57,98,90,87,-3,-1,58,0.0,0.0,25.039288,121.612939,0,0,0,0,0,0,0,0,0,0,0,0,0,00000000
0C9A4249DB69,2020-04-10,02:50:00,29.6,51.6,4,6,6,485,0,-3,-1,58,92,98,88,-3,-1,58,0.0,0.0,25.039288,121.612939,0,0,0,0,0,0,0,0,0,0,0,0,0,00000000
0C9A4249DB69,2020-04-10,02:50:15,29.6,51.7,4,6,6,485,0,-3,-1,58,105,97,108,-2,0,58,0.0,0.0,25.039288,121.612939,0,0,0,0,0,0,0,0,0,0,0,0,0,00000000
0C9A4249DB69,2020-04-10,02:50:30,29.6,51.6,4,6,6,485,0,-2,0,58,101,100,112,-3,0,58,0.0,0.0,25.039288,121.612939,0,0,0,0,0,0,0,0,0,0,0,0,0,00000000
0C9A4249DB69,2020-04-10,02:50:45,29.6,51.6,4,7,7,486,0,-3,0,58,82,93,84,-3,-1,58,0.0,0.0,25.039288,121.612939,0,0,0,0,0,0,0,0,0,0,0,0,0,00000000
0C9A4249DB69,2020-04-10,02:51:00,29.6,51.7,4,6,6,485,0,-3,-1,58,83,72,98,-2,-1,58,0.0,0.0,25.039288,121.612939,0,0,0,0,0,0,0,0,0,0,0,0,0,00000000
0C9A4249DB69,2020-04-10,02:51:15,29.6,51.7,4,6,6,485,0,-2,-1,58,67,72,78,-3,-1,58,0.0,0.0,25.039288,121.612939,0,0,0,0,0,0,0,0,0,0,0,0,0,00000000
0C9A4249DB69,2020-04-10,02:51:30,29.6,51.7,4,6,6,484,0,-3,-1,58,118,117,114,-3,0,58,0.0,0.0,25.039288,121.612939,0,0,0,0,0,0,0,0,0,0,0,0,0,00000000
0C9A4249DB69,2020-04-10,02:51:45,29.6,51.6,4,5,5,484,0,-3,0,58,97,90,102,-2,0,58,0.0,0.0,25.039288,121.612939,0,0,0,0,0,0,0,0,0,0,0,0,0,00000000
0C9A4249DB69,2020-04-10,02:52:00,29.6,51.7,4,5,5,484,0,-2,0,58,109,96,118,-3,0,58,0.0,0.0,25.039288,121.612939,0,0,0,0,0,0,0,0,0,0,0,0,0,00000000
0C9A4249DB69,2020-04-10,02:52:15,29.6,51.7,3,5,5,484,0,-3,0,58,81,84,87,-2,0,57,0.0,0.0,25.039288,121.612939,0,0,0,0,0,0,0,0,0,0,0,0,0,00000000
0C9A4249DB69,2020-04-10,02:52:30,29.6,51.7,3,5,6,484,0,-2,0,57,75,67,86,-3,-1,57,0.0,0.0,25.039288,121.612939,0,0,0,0,0,0,0,0,0,0,0,0,0,00000000
0C9A4249DB69,2020-04-10,02:52:45,29.6,51.7,3,6,6,485,0,-3,-1,57,115,110,113,-2,-1,58,0.0,0.0,25.039288,121.612939,0,0,0,0,0,0,0,0,0,0,0,0,0,00000000
0C9A4249DB69,2020-04-10,02:53:00,29.6,51.6,2,5,5,485,0,-2,-1,58,101,84,97,-3,-1,57,0.0,0.0,25.039288,121.612939,0,0,0,0,0,0,0,0,0,0,0,0,0,00000000
0C9A4249DB69,2020-04-10,02:53:15,29.6,51.7,3,5,5,485,0,-3,-1,57,80,84,80,-3,-1,57,0.0,0.0,25.039288,121.612939,0,0,0,0,0,0,0,0,0,0,0,0,0,00000000
0C9A4249DB69,2020-04-10,02:53:30,29.6,51.6,4,6,6,485,0,-3,-1,57,82,86,98,-3,-1,57,0.0,0.0,25.039288,121.612939,0,0,0,0,0,0,0,0,0,0,0,0,0,00000000
0C9A4249DB69,2020-04-10,02:53:45,29.6,51.6,2,4,4,485,0,-3,-1,57,90,86,108,-3,-1,57,0.0,0.0,25.039288,121.612939,0,0,0,0,0,0,0,0,0,0,0,0,0,00000000
0C9A4249DB69,2020-04-10,02:54:00,29.6,51.7,3,5,5,485,0,-3,-1,57,74,80,82,-3,-1,57,0.0,0.0,25.039288,121.612939,0,0,0,0,0,0,0,0,0,0,0,0,0,00000000
0C9A4249DB69,2020-04-10,02:54:15,29.6,51.6,2,4,5,485,0,-3,-1,57,92,86,84,-3,-1,57,0.0,0.0,25.039288,121.612939,0,0,0,0,0,0,0,0,0,0,0,0,0,00000000
0C9A4249DB69,2020-04-10,02:54:30,29.6,51.6,2,4,4,485,0,-3,-1,57,68,83,96,-3,0,57,0.0,0.0,25.039288,121.612939,0,0,0,0,0,0,0,0,0,0,0,0,0,00000000
0C9A4249DB69,2020-04-10,02:54:45,29.6,51.7,3,5,6,485,0,-3,0,57,84,71,86,-3,-1,57,0.0,0.0,25.039288,121.612939,0,0,0,0,0,0,0,0,0,0,0,0,0,00000000
0C9A4249DB69,2020-04-10,02:55:00,29.6,51.7,2,4,5,484,0,-3,-1,57,109,93,95,-2,0,58,0.0,0.0,25.039288,121.612939,0,0,0,0,0,0,0,0,0,0,0,0,0,00000000
0C9A4249DB69,2020-04-10,02:55:15,29.6,51.6,4,5,6,484,0,-2,0,58,81,93,92,-3,-1,58,0.0,0.0,25.039288,121.612939,0,0,0,0,0,0,0,0,0,0,0,0,0,00000000
0C9A4249DB69,2020-04-10,02:55:30,29.6,51.7,3,6,6,484,0,-3,-1,58,106,98,105,-3,-1,57,0.0,0.0,25.039288,121.612939,0,0,0,0,0,0,0,0,0,0,0,0,0,00000000
0C9A4249DB69,2020-04-10,02:55:45,29.6,51.7,3,5,5,483,0,-3,-1,57,100,88,98,-3,-1,57,0.0,0.0,25.039288,121.612939,0,0,0,0,0,0,0,0,0,0,0,0,0,00000000
0C9A4249DB69,2020-04-10,02:56:00,29.6,51.6,3,5,5,484,0,-3,-1,57,93,90,101,-2,-1,58,0.0,0.0,25.039288,121.612939,0,0,0,0,0,0,0,0,0,0,0,0,0,00000000
0C9A4249DB69,2020-04-10,02:56:15,29.6,51.7,3,5,5,484,0,-2,-1,58,84,79,100,-2,0,58,0.0,0.0,25.039288,121.612939,0,0,0,0,0,0,0,0,0,0,0,0,0,00000000
0C9A4249DB69,2020-04-10,02:56:30,29.6,51.7,3,5,5,484,0,-2,0,58,89,81,95,-3,-1,57,0.0,0.0,25.039288,121.612939,0,0,0,0,0,0,0,0,0,0,0,0,0,00000000
0C9A4249DB69,2020-04-10,02:56:45,29.6,51.6,3,5,5,484,0,-3,-1,57,87,79,100,-2,0,59,0.0,0.0,25.039288,121.612939,0,0,0,0,0,0,0,0,0,0,0,0,0,00000000
0C9A4249DB69,2020-04-10,02:57:00,29.6,51.7,3,5,5,484,0,-2,0,59,101,99,108,-3,-1,57,0.0,0.0,25.039288,121.612939,0,0,0,0,0,0,0,0,0,0,0,0,0,00000000
0C9A4249DB69,2020-04-10,02:57:15,29.6,51.6,3,6,6,484,0,-3,-1,57,86,86,84,-3,-1,57,0.0,0.0,25.039288,121.612939,0,0,0,0,0,0,0,0,0,0,0,0,0,00000000
0C9A4249DB69,2020-04-10,02:57:30,29.6,51.6,3,5,5,483,0,-3,-1,57,98,90,105,-3,-1,58,0.0,0.0,25.039288,121.612939,0,0,0,0,0,0,0,0,0,0,0,0,0,00000000
0C9A4249DB69,2020-04-10,02:57:45,29.6,51.7,4,6,6,484,0,-3,-1,58,91,88,97,-2,-1,57,0.0,0.0,25.039288,121.612939,0,0,0,0,0,0,0,0,0,0,0,0,0,00000000
0C9A4249DB69,2020-04-10,02:58:00,29.6,51.6,4,5,5,482,0,-2,-1,57,90,86,93,-2,-1,58,0.0,0.0,25.039288,121.612939,0,0,0,0,0,0,0,0,0,0,0,0,0,00000000
0C9A4249DB69,2020-04-10,02:58:15,29.6,51.7,3,5,5,482,0,-2,-1,58,100,90,94,-2,-1,58,0.0,0.0,25.039288,121.612939,0,0,0,0,0,0,0,0,0,0,0,0,0,00000000
0C9A4249DB69,2020-04-10,02:58:30,29.6,51.7,3,5,5,482,0,-2,-1,58,103,102,107,-3,-1,57,0.0,0.0,25.039288,121.612939,0,0,0,0,0,0,0,0,0,0,0,0,0,00000000
0C9A4249DB69,2020-04-10,02:58:45,29.6,51.6,2,5,5,482,0,-3,-1,57,88,86,110,-3,-1,57,0.0,0.0,25.039288,121.612939,0,0,0,0,0,0,0,0,0,0,0,0,0,00000000
0C9A4249DB69,2020-04-10,02:59:00,29.6,51.6,3,5,5,482,0,-3,-1,57,94,76,89,-3,-1,58,0.0,0.0,25.039288,121.612939,0,0,0,0,0,0,0,0,0,0,0,0,0,00000000
0C9A4249DB69,2020-04-10,02:59:15,29.6,51.7,4,6,6,482,0,-3,-1,58,96,76,100,-3,-1,58,0.0,0.0,25.039288,121.612939,0,0,0,0,0,0,0,0,0,0,0,0,0,00000000
0C9A4249DB69,2020-04-10,02:59:30,29.6,51.6,4,6,6,482,0,-3,-1,58,91,94,99,-4,-1,57,0.0,0.0,25.039288,121.612939,0,0,0,0,0,0,0,0,0,0,0,0,0,00000000
0C9A4249DB69,2020-04-10,02:59:45,29.6,51.7,3,6,6,482,0,-4,-1,57,87,80,100,-3,-1,57,0.0,0.0,25.039288,121.612939,0,0,0,0,0,0,0,0,0,0,0,0,0,00000000
0C9A4249DB69,2020-04-10,03:00:00,29.6,51.7,2,5,5,483,0,-3,-1,57,98,92,96,-3,-1,57,0.0,0.0,25.039288,121.612939,0,0,0,0,0,0,0,0,0,0,0,0,0,00000000
0C9A4249DB69,2020-04-10,03:00:15,29.6,51.6,3,6,6,483,0,-3,-1,57,68,68,80,-3,-1,57,0.0,0.0,25.039288,121.612939,0,0,0,0,0,0,0,0,0,0,0,0,0,00000000
0C9A4249DB69,2020-04-10,03:00:30,29.6,51.6,3,6,6,482,0,-3,-1,57,90,86,92,-3,-1,57,0.0,0.0,25.039288,121.612939,0,0,0,0,0,0,0,0,0,0,0,0,0,00000000
0C9A4249DB69,2020-04-10,03:00:45,29.6,51.6,3,5,5,482,0,-3,-1,57,113,100,110,-2,-1,57,0.0,0.0,25.039288,121.612939,0,0,0,0,0,0,0,0,0,0,0,0,0,00000000
0C9A4249DB69,2020-04-10,03:01:00,29.6,51.7,3,5,5,482,0,-2,-1,57,95,90,93,-3,-1,58,0.0,0.0,25.039288,121.612939,0,0,0,0,0,0,0,0,0,0,0,0,0,00000000
0C9A4249DB69,2020-04-10,03:01:15,29.6,51.7,3,5,6,482,0,-3,-1,58,66,80,93,-3,-1,57,0.0,0.0,25.039288,121.612939,0,0,0,0,0,0,0,0,0,0,0,0,0,00000000
0C9A4249DB69,2020-04-10,03:01:30,29.6,51.7,3,5,6,482,0,-3,-1,57,118,105,123,-3,0,58,0.0,0.0,25.039288,121.612939,0,0,0,0,0,0,0,0,0,0,0,0,0,00000000
0C9A4249DB69,2020-04-10,03:01:45,29.6,51.7,3,5,6,482,0,-3,0,58,90,101,111,-3,-1,57,0.0,0.0,25.039288,121.612939,0,0,0,0,0,0,0,0,0,0,0,0,0,00000000
0C9A4249DB69,2020-04-10,03:02:00,29.6,51.6,3,5,5,482,0,-3,-1,57,62,73,76,-3,0,57,0.0,0.0,25.039288,121.612939,0,0,0,0,0,0,0,0,0,0,0,0,0,00000000
0C9A4249DB69,2020-04-10,03:02:15,29.6,51.6,3,5,5,482,0,-3,0,57,107,86,87,-2,0,58,0.0,0.0,25.039288,121.612939,0,0,0,0,0,0,0,0,0,0,0,0,0,00000000
0C9A4249DB69,2020-04-10,03:02:30,29.6,51.7,3,5,5,482,0,-2,0,58,84,87,97,-4,-1,57,0.0,0.0,25.039288,121.612939,0,0,0,0,0,0,0,0,0,0,0,0,0,00000000
0C9A4249DB69,2020-04-10,03:02:45,29.6,51.7,3,5,6,483,0,-4,-1,57,79,74,98,-3,-1,57,0.0,0.0,25.039288,121.612939,0,0,0,0,0,0,0,0,0,0,0,0,0,00000000
0C9A4249DB69,2020-04-10,03:03:00,29.6,51.7,3,5,6,483,0,-3,-1,57,104,114,104,-3,-1,57,0.0,0.0,25.039288,121.612939,0,0,0,0,0,0,0,0,0,0,0,0,0,00000000
0C9A4249DB69,2020-04-10,03:03:15,29.6,51.7,3,5,5,484,0,-3,-1,57,90,98,98,-3,-1,57,0.0,0.0,25.039288,121.612939,0,0,0,0,0,0,0,0,0,0,0,0,0,00000000
0C9A4249DB69,2020-04-10,03:03:30,29.6,51.7,3,5,5,483,0,-3,-1,57,79,80,85,-2,-1,58,0.0,0.0,25.039288,121.612939,0,0,0,0,0,0,0,0,0,0,0,0,0,00000000
0C9A4249DB69,2020-04-10,03:03:45,29.6,51.7,3,5,5,483,0,-2,-1,58,89,92,108,-3,-1,58,0.0,0.0,25.039288,121.612939,0,0,0,0,0,0,0,0,0,0,0,0,0,00000000
0C9A4249DB69,2020-04-10,03:04:00,29.6,51.7,3,5,5,484,0,-3,-1,58,94,83,96,-3,0,58,0.0,0.0,25.039288,121.612939,0,0,0,0,0,0,0,0,0,0,0,0,0,00000000
0C9A4249DB69,2020-04-10,03:04:15,29.6,51.7,3,5,5,484,0,-3,0,58,84,82,91,-3,-2,57,0.0,0.0,25.039288,121.612939,0,0,0,0,0,0,0,0,0,0,0,0,0,00000000
0C9A4249DB69,2020-04-10,03:04:30,29.6,51.7,3,5,6,483,0,-3,-2,57,88,77,104,-3,-1,57,0.0,0.0,25.039288,121.612939,0,0,0,0,0,0,0,0,0,0,0,0,0,00000000
0C9A4249DB69,2020-04-10,03:04:45,29.6,51.7,3,4,5,484,0,-3,-1,57,93,89,105,-2,0,58,0.0,0.0,25.039288,121.612939,0,0,0,0,0,0,0,0,0,0,0,0,0,00000000
0C9A4249DB69,2020-04-10,03:05:00,29.6,51.7,4,6,7,484,0,-2,0,58,97,84,96,-3,0,58,0.0,0.0,25.039288,121.612939,0,0,0,0,0,0,0,0,0,0,0,0,0,00000000
0C9A4249DB69,2020-04-10,03:05:15,29.6,51.7,3,6,6,484,0,-3,0,58,94,95,91,-3,-1,57,0.0,0.0,25.039288,121.612939,0,0,0,0,0,0,0,0,0,0,0,0,0,00000000
0C9A4249DB69,2020-04-10,03:05:30,29.6,51.7,2,4,4,484,0,-3,-1,57,98,108,114,-3,-1,57,0.0,0.0,25.039288,121.612939,0,0,0,0,0,0,0,0,0,0,0,0,0,00000000
0C9A4249DB69,2020-04-10,03:05:45,29.6,51.7,1,3,4,483,0,-3,-1,57,82,97,102,-3,0,57,0.0,0.0,25.039288,121.612939,0,0,0,0,0,0,0,0,0,0,0,0,0,00000000
0C9A4249DB69,2020-04-10,03:06:00,29.6,51.6,1,3,4,484,0,-3,0,57,84,79,88,-3,-1,57,0.0,0.0,25.039288,121.612939,0,0,0,0,0,0,0,0,0,0,0,0,0,00000000
0C9A4249DB69,2020-04-10,03:06:15,29.6,51.7,2,4,4,484,0,-3,-1,57,78,91,84,-3,0,57,0.0,0.0,25.039288,121.612939,0,0,0,0,0,0,0,0,0,0,0,0,0,00000000
0C9A4249DB69,2020-04-10,03:06:30,29.6,51.7,3,6,6,483,0,-3,0,57,78,75,95,-3,-1,58,0.0,0.0,25.039288,121.612939,0,0,0,0,0,0,0,0,0,0,0,0,0,00000000
0C9A4249DB69,2020-04-10,03:06:45,29.6,51.7,3,5,5,484,0,-3,-1,58,80,75,98,-3,0,58,0.0,0.0,25.039288,121.612939,0,0,0,0,0,0,0,0,0,0,0,0,0,00000000
0C9A4249DB69,2020-04-10,03:07:00,29.6,51.6,3,5,6,484,0,-3,0,58,104,101,111,-3,-1,57,0.0,0.0,25.039288,121.612939,0,0,0,0,0,0,0,0,0,0,0,0,0,00000000
0C9A4249DB69,2020-04-10,03:07:15,29.6,51.7,1,4,4,484,0,-3,-1,57,84,78,92,-3,-1,57,0.0,0.0,25.039288,121.612939,0,0,0,0,0,0,0,0,0,0,0,0,0,00000000
0C9A4249DB69,2020-04-10,03:07:30,29.6,51.7,3,5,5,485,0,-3,-1,57,87,81,96,-2,0,59,0.0,0.0,25.039288,121.612939,0,0,0,0,0,0,0,0,0,0,0,0,0,00000000
0C9A4249DB69,2020-04-10,03:07:45,29.6,51.6,2,4,5,485,0,-2,0,59,71,69,84,-3,-1,57,0.0,0.0,25.039288,121.612939,0,0,0,0,0,0,0,0,0,0,0,0,0,00000000
0C9A4249DB69,2020-04-10,03:08:00,29.6,51.7,3,5,5,484,0,-3,-1,57,85,74,73,-2,-1,58,0.0,0.0,25.039288,121.612939,0,0,0,0,0,0,0,0,0,0,0,0,0,00000000
0C9A4249DB69,2020-04-10,03:08:15,29.6,51.7,3,5,6,484,0,-2,-1,58,87,90,100,-3,-1,58,0.0,0.0,25.039288,121.612939,0,0,0,0,0,0,0,0,0,0,0,0,0,00000000
0C9A4249DB69,2020-04-10,03:08:30,29.6,51.7,3,5,5,484,0,-3,-1,58,82,86,109,-3,-1,57,0.0,0.0,25.039288,121.612939,0,0,0,0,0,0,0,0,0,0,0,0,0,00000000
0C9A4249DB69,2020-04-10,03:08:45,29.6,51.7,4,5,5,484,0,-3,-1,57,109,106,114,-2,-1,57,0.0,0.0,25.039288,121.612939,0,0,0,0,0,0,0,0,0,0,0,0,0,00000000
0C9A4249DB69,2020-04-10,03:09:00,29.6,51.7,3,4,4,484,0,-2,-1,57,74,74,89,-2,-1,58,0.0,0.0,25.039288,121.612939,0,0,0,0,0,0,0,0,0,0,0,0,0,00000000
0C9A4249DB69,2020-04-10,03:09:15,29.6,51.7,2,4,4,484,0,-2,-1,58,81,86,94,-3,-1,58,0.0,0.0,25.039288,121.612939,0,0,0,0,0,0,0,0,0,0,0,0,0,00000000
0C9A4249DB69,2020-04-10,03:09:30,29.6,51.7,3,4,4,484,0,-3,-1,58,64,70,77,-3,-1,57,0.0,0.0,25.039288,121.612939,0,0,0,0,0,0,0,0,0,0,0,0,0,00000000
0C9A4249DB69,2020-04-10,03:09:45,29.5,51.7,3,5,5,484,0,-3,-1,57,90,105,93,-3,0,58,0.0,0.0,25.039288,121.612939,0,0,0,0,0,0,0,0,0,0,0,0,0,00000000
0C9A4249DB69,2020-04-10,03:10:00,29.5,51.7,3,6,6,483,0,-3,0,58,107,105,92,-2,-1,58,0.0,0.0,25.039288,121.612939,0,0,0,0,0,0,0,0,0,0,0,0,0,00000000
0C9A4249DB69,2020-04-10,03:10:15,29.6,51.6,3,6,7,483,0,-2,-1,58,84,90,101,-4,-1,57,0.0,0.0,25.039288,121.612939,0,0,0,0,0,0,0,0,0,0,0,0,0,00000000
0C9A4249DB69,2020-04-10,03:10:30,29.6,51.7,3,5,6,483,0,-4,-1,57,82,77,86,-2,0,59,0.0,0.0,25.039288,121.612939,0,0,0,0,0,0,0,0,0,0,0,0,0,00000000
0C9A4249DB69,2020-04-10,03:10:45,29.6,51.7,2,5,6,483,0,-2,0,59,88,69,101,-2,-1,58,0.0,0.0,25.039288,121.612939,0,0,0,0,0,0,0,0,0,0,0,0,0,00000000
0C9A4249DB69,2020-04-10,03:11:00,29.6,51.7,2,4,4,484,0,-2,-1,58,79,72,107,-3,-1,57,0.0,0.0,25.039288,121.612939,0,0,0,0,0,0,0,0,0,0,0,0,0,00000000
0C9A4249DB69,2020-04-10,03:11:15,29.6,51.7,3,5,5,484,0,-3,-1,57,74,86,111,-3,-1,58,0.0,0.0,25.039288,121.612939,0,0,0,0,0,0,0,0,0,0,0,0,0,00000000
0C9A4249DB69,2020-04-10,03:11:30,29.6,51.7,3,4,4,484,0,-3,-1,58,93,74,94,-2,-1,58,0.0,0.0,25.039288,121.612939,0,0,0,0,0,0,0,0,0,0,0,0,0,00000000
0C9A4249DB69,2020-04-10,03:11:45,29.6,51.7,3,4,5,483,0,-2,-1,58,83,86,93,-3,-1,57,0.0,0.0,25.039288,121.612939,0,0,0,0,0,0,0,0,0,0,0,0,0,00000000
0C9A4249DB69,2020-04-10,03:12:00,29.6,51.7,2,4,5,484,0,-3,-1,57,101,99,89,-2,0,58,0.0,0.0,25.039288,121.612939,0,0,0,0,0,0,0,0,0,0,0,0,0,00000000
0C9A4249DB69,2020-04-10,03:12:15,29.6,51.7,3,4,5,484,0,-2,0,58,83,80,92,-3,0,58,0.0,0.0,25.039288,121.612939,0,0,0,0,0,0,0,0,0,0,0,0,0,00000000
0C9A4249DB69,2020-04-10,03:12:30,29.6,51.7,2,4,4,483,0,-3,0,58,89,92,99,-2,0,57,0.0,0.0,25.039288,121.612939,0,0,0,0,0,0,0,0,0,0,0,0,0,00000000
0C9A4249DB69,2020-04-10,03:12:45,29.6,51.7,2,4,4,484,0,-2,0,57,103,99,90,-3,-1,57,0.0,0.0,25.039288,121.612939,0,0,0,0,0,0,0,0,0,0,0,0,0,00000000
0C9A4249DB69,2020-04-10,03:13:00,29.6,51.7,3,4,4,484,0,-3,-1,57,74,78,99,-3,-1,58,0.0,0.0,25.039288,121.612939,0,0,0,0,0,0,0,0,0,0,0,0,0,00000000
0C9A4249DB69,2020-04-10,03:13:15,29.6,51.7,2,4,4,484,0,-3,-1,58,84,92,102,-3,-1,58,0.0,0.0,25.039288,121.612939,0,0,0,0,0,0,0,0,0,0,0,0,0,00000000
0C9A4249DB69,2020-04-10,03:13:30,29.6,51.7,3,4,4,483,0,-3,-1,58,71,79,94,-2,0,58,0.0,0.0,25.039288,121.612939,0,0,0,0,0,0,0,0,0,0,0,0,0,00000000
0C9A4249DB69,2020-04-10,03:13:45,29.5,51.7,3,4,5,484,0,-2,0,58,95,77,84,-3,-1,58,0.0,0.0,25.039288,121.612939,0,0,0,0,0,0,0,0,0,0,0,0,0,00000000
0C9A4249DB69,2020-04-10,03:14:00,29.5,51.7,3,5,5,484,0,-3,-1,58,75,70,94,-2,-1,58,0.0,0.0,25.039288,121.612939,0,0,0,0,0,0,0,0,0,0,0,0,0,00000000
0C9A4249DB69,2020-04-10,03:14:15,29.6,51.7,3,5,5,485,0,-2,-1,58,91,90,95,-3,-1,57,0.0,0.0,25.039288,121.612939,0,0,0,0,0,0,0,0,0,0,0,0,0,00000000
0C9A4249DB69,2020-04-10,03:14:30,29.6,51.7,3,5,5,484,0,-3,-1,57,86,58,100,-3,-1,57,0.0,0.0,25.039288,121.612939,0,0,0,0,0,0,0,0,0,0,0,0,0,00000000
0C9A4249DB69,2020-04-10,03:14:45,29.6,51.7,3,4,5,484,0,-3,-1,57,82,78,97,-3,-1,58,0.0,0.0,25.039288,121.612939,0,0,0,0,0,0,0,0,0,0,0,0,0,00000000
0C9A4249DB69,2020-04-10,03:15:00,29.5,51.7,3,5,5,484,0,-3,-1,58,119,106,120,-2,-1,58,0.0,0.0,25.039288,121.612939,0,0,0,0,0,0,0,0,0,0,0,0,0,00000000
0C9A4249DB69,2020-04-10,03:15:15,29.5,51.7,3,5,5,484,0,-2,-1,58,71,73,88,-3,0,58,0.0,0.0,25.039288,121.612939,0,0,0,0,0,0,0,0,0,0,0,0,0,00000000
0C9A4249DB69,2020-04-10,03:15:30,29.6,51.7,3,5,5,484,0,-3,0,58,96,101,117,-3,-1,57,0.0,0.0,25.039288,121.612939,0,0,0,0,0,0,0,0,0,0,0,0,0,00000000
0C9A4249DB69,2020-04-10,03:15:45,29.6,51.7,3,6,6,484,0,-3,-1,57,96,108,91,-3,-1,58,0.0,0.0,25.039288,121.612939,0,0,0,0,0,0,0,0,0,0,0,0,0,00000000
0C9A4249DB69,2020-04-10,03:16:00,29.6,51.7,3,5,5,484,0,-3,-1,58,84,90,91,-3,-1,57,0.0,0.0,25.039288,121.612939,0,0,0,0,0,0,0,0,0,0,0,0,0,00000000
0C9A4249DB69,2020-04-10,03:16:15,29.5,51.7,3,5,5,484,0,-3,-1,57,102,95,97,-3,0,58,0.0,0.0,25.039288,121.612939,0,0,0,0,0,0,0,0,0,0,0,0,0,00000000
0C9A4249DB69,2020-04-10,03:16:30,29.6,51.7,3,4,5,484,0,-3,0,58,108,109,97,-3,-1,57,0.0,0.0,25.039288,121.612939,0,0,0,0,0,0,0,0,0,0,0,0,0,00000000
0C9A4249DB69,2020-04-10,03:16:45,29.5,51.7,3,4,4,483,0,-3,-1,57,73,85,93,-2,0,58,0.0,0.0,25.039288,121.612939,0,0,0,0,0,0,0,0,0,0,0,0,0,00000000
0C9A4249DB69,2020-04-10,03:17:00,29.5,51.7,3,4,5,484,0,-2,0,58,65,69,85,-3,-1,57,0.0,0.0,25.039288,121.612939,0,0,0,0,0,0,0,0,0,0,0,0,0,00000000
0C9A4249DB69,2020-04-10,03:17:15,29.5,51.7,3,5,5,484,0,-3,-1,57,95,101,91,-2,0,58,0.0,0.0,25.039288,121.612939,0,0,0,0,0,0,0,0,0,0,0,0,0,00000000
0C9A4249DB69,2020-04-10,03:17:30,29.6,51.7,3,5,5,484,0,-2,0,58,89,88,105,-3,0,57,0.0,0.0,25.039288,121.612939,0,0,0,0,0,0,0,0,0,0,0,0,0,00000000
0C9A4249DB69,2020-04-10,03:17:45,29.5,51.7,3,5,5,484,0,-3,0,57,103,103,105,-2,-1,58,0.0,0.0,25.039288,121.612939,0,0,0,0,0,0,0,0,0,0,0,0,0,00000000
0C9A4249DB69,2020-04-10,03:18:00,29.6,51.7,3,5,6,484,0,-2,-1,58,74,87,102,-2,0,58,0.0,0.0,25.039288,121.612939,0,0,0,0,0,0,0,0,0,0,0,0,0,00000000
0C9A4249DB69,2020-04-10,03:18:15,29.6,51.7,3,4,5,484,0,-2,0,58,79,75,95,-3,-1,57,0.0,0.0,25.039288,121.612939,0,0,0,0,0,0,0,0,0,0,0,0,0,00000000
0C9A4249DB69,2020-04-10,03:18:30,29.5,51.7,2,4,4,484,0,-3,-1,57,81,67,98,-2,0,57,0.0,0.0,25.039288,121.612939,0,0,0,0,0,0,0,0,0,0,0,0,0,00000000
0C9A4249DB69,2020-04-10,03:18:45,29.5,51.7,2,4,4,484,0,-2,0,57,130,113,124,-2,-1,57,0.0,0.0,25.039288,121.612939,0,0,0,0,0,0,0,0,0,0,0,0,0,00000000
0C9A4249DB69,2020-04-10,03:19:00,29.5,51.7,3,5,5,484,0,-2,-1,57,80,85,103,-2,0,58,0.0,0.0,25.039288,121.612939,0,0,0,0,0,0,0,0,0,0,0,0,0,00000000
0C9A4249DB69,2020-04-10,03:19:15,29.6,51.7,2,4,4,484,0,-2,0,58,83,69,92,-3,-1,58,0.0,0.0,25.039288,121.612939,0,0,0,0,0,0,0,0,0,0,0,0,0,00000000
0C9A4249DB69,2020-04-10,03:19:30,29.6,51.7,4,6,6,483,0,-3,-1,58,85,82,103,-4,-1,57,0.0,0.0,25.039288,121.612939,0,0,0,0,0,0,0,0,0,0,0,0,0,00000000
0C9A4249DB69,2020-04-10,03:19:45,29.5,51.7,3,5,5,483,0,-4,-1,57,100,99,94,-2,0,57,0.0,0.0,25.039288,121.612939,0,0,0,0,0,0,0,0,0,0,0,0,0,00000000
0C9A4249DB69,2020-04-10,03:20:00,29.6,51.7,3,5,5,483,0,-2,0,57,85,89,104,-3,-1,57,0.0,0.0,25.039288,121.612939,0,0,0,0,0,0,0,0,0,0,0,0,0,00000000
0C9A4249DB69,2020-04-10,03:20:15,29.5,51.7,3,6,6,483,0,-3,-1,57,110,109,106,-3,0,57,0.0,0.0,25.039288,121.612939,0,0,0,0,0,0,0,0,0,0,0,0,0,00000000
0C9A4249DB69,2020-04-10,03:20:30,29.6,51.7,3,5,5,482,0,-3,0,57,105,83,96,-2,-1,57,0.0,0.0,25.039288,121.612939,0,0,0,0,0,0,0,0,0,0,0,0,0,00000000
0C9A4249DB69,2020-04-10,03:20:45,29.6,51.7,3,4,5,482,0,-2,-1,57,91,96,106,-3,-1,57,0.0,0.0,25.039288,121.612939,0,0,0,0,0,0,0,0,0,0,0,0,0,00000000
0C9A4249DB69,2020-04-10,03:21:00,29.5,51.7,2,4,5,482,0,-3,-1,57,68,70,84,-3,-1,57,0.0,0.0,25.039288,121.612939,0,0,0,0,0,0,0,0,0,0,0,0,0,00000000
0C9A4249DB69,2020-04-10,03:21:15,29.6,51.7,3,4,5,482,0,-3,-1,57,96,100,104,-3,-1,57,0.0,0.0,25.039288,121.612939,0,0,0,0,0,0,0,0,0,0,0,0,0,00000000
0C9A4249DB69,2020-04-10,03:21:30,29.6,51.7,3,4,4,482,0,-3,-1,57,84,94,102,-3,-1,57,0.0,0.0,25.039288,121.612939,0,0,0,0,0,0,0,0,0,0,0,0,0,00000000
0C9A4249DB69,2020-04-10,03:21:45,29.6,51.7,3,4,5,482,0,-3,-1,57,89,88,91,-2,-1,58,0.0,0.0,25.039288,121.612939,0,0,0,0,0,0,0,0,0,0,0,0,0,00000000
0C9A4249DB69,2020-04-10,03:22:00,29.5,51.7,3,5,5,482,0,-2,-1,58,89,87,88,-3,0,58,0.0,0.0,25.039288,121.612939,0,0,0,0,0,0,0,0,0,0,0,0,0,00000000
0C9A4249DB69,2020-04-10,03:22:15,29.6,51.7,3,4,5,482,0,-3,0,58,82,103,94,-3,-1,58,0.0,0.0,25.039288,121.612939,0,0,0,0,0,0,0,0,0,0,0,0,0,00000000
0C9A4249DB69,2020-04-10,03:22:30,29.5,51.7,3,4,5,482,0,-3,-1,58,78,88,80,-3,-1,58,0.0,0.0,25.039288,121.612939,0,0,0,0,0,0,0,0,0,0,0,0,0,00000000
0C9A4249DB69,2020-04-10,03:22:45,29.6,51.7,3,4,4,482,0,-3,-1,58,106,100,104,-3,-1,58,0.0,0.0,25.039288,121.612939,0,0,0,0,0,0,0,0,0,0,0,0,0,00000000
0C9A4249DB69,2020-04-10,03:23:00,29.5,51.7,3,5,5,482,0,-3,-1,58,78,78,91,-3,-1,57,0.0,0.0,25.039288,121.612939,0,0,0,0,0,0,0,0,0,0,0,0,0,00000000
