id,date,time,sht_t,sht_h,pm1,pm25,pm10,co2,adc,acc_x,acc_y,acc_z,accx_int,accy_int,accz_int,accx_i,accy_i,accz_i,sht_t_ext,sht_h_ext,gps_lat,gps_lon,gps_alt,gps_speed,gps_dir,gps_fix,pressure,ai1_1,ai1_2,ai1_3,ai1_4,ai2_1,ai2_2,ai2_3,ai2_4,ERR
0C9A4249DBAE,2020-04-08,00:00:00,27.4,53.9,6,10,11,471,0,3,-2,60,41,76,62,2,-2,60,0.0,0.0,25.039288,121.612939,0,0,0,0,0,0,0,0,0,0,0,0,0,00000000
0C9A4249DBAE,2020-04-08,00:00:15,27.5,53.9,7,10,11,470,0,2,-2,60,49,79,88,3,-1,60,0.0,0.0,25.039288,121.612939,0,0,0,0,0,0,0,0,0,0,0,0,0,00000000
0C9A4249DBAE,2020-04-08,00:00:30,27.5,53.9,7,10,11,470,0,3,-1,60,43,68,64,2,-1,60,0.0,0.0,25.039288,121.612939,0,0,0,0,0,0,0,0,0,0,0,0,0,00000000
0C9A4249DBAE,2020-04-08,00:00:45,27.5,53.9,7,11,12,471,0,2,-1,60,42,92,94,2,-1,60,0.0,0.0,25.039288,121.612939,0,0,0,0,0,0,0,0,0,0,0,0,0,00000000
0C9A4249DBAE,2020-04-08,00:01:00,27.5,53.9,7,12,12,471,0,2,-1,60,56,81,82,2,-2,60,0.0,0.0,25.039288,121.612939,0,0,0,0,0,0,0,0,0,0,0,0,0,00000000
0C9A4249DBAE,2020-04-08,00:01:15,27.5,53.8,7,12,12,471,0,2,-2,60,50,73,84,2,-1,60,0.0,0.0,25.039288,121.612939,0,0,0,0,0,0,0,0,0,0,0,0,0,00000000
0C9A4249DBAE,2020-04-08,00:01:30,27.5,53.9,7,11,11,471,0,2,-1,60,54,79,69,2,-2,61,0.0,0.0,25.039288,121.612939,0,0,0,0,0,0,0,0,0,0,0,0,0,00000000
0C9A4249DBAE,2020-04-08,00:01:45,27.5,53.9,5,10,10,471,0,2,-2,61,52,79,81,2,-1,60,0.0,0.0,25.039288,121.612939,0,0,0,0,0,0,0,0,0,0,0,0,0,00000000
0C9A4249DBAE,2020-04-08,00:02:00,27.5,53.9,7,11,11,471,0,2,-1,60,42,68,84,2,-1,60,0.0,0.0,25.039288,121.612939,0,0,0,0,0,0,0,0,0,0,0,0,0,00000000
0C9A4249DBAE,2020-04-08,00:02:15,27.4,53.9,6,10,11,471,0,2,-1,60,38,63,73,2,-2,61,0.0,0.0,25.039288,121.612939,0,0,0,0,0,0,0,0,0,0,0,0,0,00000000
0C9A4249DBAE,2020-04-08,00:02:30,27.4,53.9,7,11,11,471,0,2,-2,61,50,74,73,2,-2,60,0.0,0.0,25.039288,121.612939,0,0,0,0,0,0,0,0,0,0,0,0,0,00000000
0C9A4249DBAE,2020-04-08,00:02:45,27.5,53.9,7,11,11,471,0,2,-2,60,54,71,80,2,-1,60,0.0,0.0,25.039288,121.612939,0,0,0,0,0,0,0,0,0,0,0,0,0,00000000
0C9A4249DBAE,2020-04-08,00:03:00,27.5,53.9,6,10,10,471,0,2,-1,60,58,77,75,2,-2,61,0.0,0.0,25.039288,121.612939,0,0,0,0,0,0,0,0,0,0,0,0,0,00000000
0C9A4249DBAE,2020-04-08,00:03:15,27.5,53.9,7,11,11,472,0,2,-2,61,54,78,76,2,-2,61,0.0,0.0,25.039288,121.612939,0,0,0,0,0,0,0,0,0,0,0,0,0,00000000
0C9A4249DBAE,2020-04-08,00:03:30,27.5,53.9,7,11,11,473,0,2,-2,61,50,63,80,2,-1,61,0.0,0.0,25.039288,121.612939,0,0,0,0,0,0,0,0,0,0,0,0,0,00000000
0C9A4249DBAE,2020-04-08,00:03:45,27.5,53.9,8,11,12,473,0,2,-1,61,66,64,65,2,-1,60,0.0,0.0,25.039288,121.612939,0,0,0,0,0,0,0,0,0,0,0,0,0,00000000
0C9A4249DBAE,2020-04-08,00:04:00,27.5,53.9,7,12,12,473,0,2,-1,60,53,76,76,3,-1,60,0.0,0.0,25.039288,121.612939,0,0,0,0,0,0,0,0,0,0,0,0,0,00000000
0C9A4249DBAE,2020-04-08,00:04:15,27.5,53.9,6,11,11,473,0,3,-1,60,45,61,67,2,-2,61,0.0,0.0,25.039288,121.612939,0,0,0,0,0,0,0,0,0,0,0,0,0,00000000
0C9A4249DBAE,2020-04-08,00:04:30,27.5,53.9,7,11,11,473,0,2,-2,61,58,85,78,2,-1,61,0.0,0.0,25.039288,121.612939,0,0,0,0,0,0,0,0,0,0,0,0,0,00000000
0C9A4249DBAE,2020-04-08,00:04:45,27.4,53.9,7,10,11,473,0,2,-1,61,36,72,61,2,-1,60,0.0,0.0,25.039288,121.612939,0,0,0,0,0,0,0,0,0,0,0,0,0,00000000
0C9A4249DBAE,2020-04-08,00:05:00,27.4,53.9,6,9,10,473,0,2,-1,60,48,75,70,2,-2,60,0.0,0.0,25.039288,121.612939,0,0,0,0,0,0,0,0,0,0,0,0,0,00000000
0C9A4249DBAE,2020-04-08,00:05:15,27.5,53.9,6,10,10,473,0,2,-2,60,62,84,76,2,-2,60,0.0,0.0,25.039288,121.612939,0,0,0,0,0,0,0,0,0,0,0,0,0,00000000
0C9A4249DBAE,2020-04-08,00:05:30,27.4,53.9,7,10,11,472,0,2,-2,60,54,69,82,2,-1,60,0.0,0.0,25.039288,121.612939,0,0,0,0,0,0,0,0,0,0,0,0,0,00000000
0C9A4249DBAE,2020-04-08,00:05:45,27.5,53.9,7,11,11,471,0,2,-1,60,56,58,74,2,-1,60,0.0,0.0,25.039288,121.612939,0,0,0,0,0,0,0,0,0,0,0,0,0,00000000
0C9A4249DBAE,2020-04-08,00:06:00,27.5,53.9,6,10,11,471,0,2,-1,60,42,75,87,2,-2,61,0.0,0.0,25.039288,121.612939,0,0,0,0,0,0,0,0,0,0,0,0,0,00000000
0C9A4249DBAE,2020-04-08,00:06:15,27.5,53.9,6,11,12,471,0,2,-2,61,66,73,69,2,-1,60,0.0,0.0,25.039288,121.612939,0,0,0,0,0,0,0,0,0,0,0,0,0,00000000
0C9A4249DBAE,2020-04-08,00:06:30,27.4,53.9,6,12,12,471,0,2,-1,60,36,69,84,2,-2,60,0.0,0.0,25.039288,121.612939,0,0,0,0,0,0,0,0,0,0,0,0,0,00000000
0C9A4249DBAE,2020-04-08,00:06:45,27.5,53.9,7,11,11,471,0,2,-2,60,45,75,70,1,-1,60,0.0,0.0,25.039288,121.612939,0,0,0,0,0,0,0,0,0,0,0,0,0,00000000
0C9A4249DBAE,2020-04-08,00:07:00,27.5,53.9,7,10,10,471,0,1,-1,60,42,87,86,3,-2,60,0.0,0.0,25.039288,121.612939,0,0,0,0,0,0,0,0,0,0,0,0,0,00000000
0C9A4249DBAE,2020-04-08,00:07:15,27.5,53.9,7,10,10,471,0,3,-2,60,61,76,67,2,-2,61,0.0,0.0,25.039288,121.612939,0,0,0,0,0,0,0,0,0,0,0,0,0,00000000
0C9A4249DBAE,2020-04-08,00:07:30,27.5,53.9,7,10,10,471,0,2,-2,61,62,75,89,2,-1,60,0.0,0.0,25.039288,121.612939,0,0,0,0,0,0,0,0,0,0,0,0,0,00000000
0C9A4249DBAE,2020-04-08,00:07:45,27.5,53.9,7,11,11,471,0,2,-1,60,54,70,69,2,-1,61,0.0,0.0,25.039288,121.612939,0,0,0,0,0,0,0,0,0,0,0,0,0,00000000
0C9A4249DBAE,2020-04-08,00:08:00,27.5,53.9,7,11,11,471,0,2,-1,61,54,76,77,2,-1,60,0.0,0.0,25.039288,121.612939,0,0,0,0,0,0,0,0,0,0,0,0,0,00000000
0C9A4249DBAE,2020-04-08,00:08:15,27.4,53.9,7,10,11,471,0,2,-1,60,54,70,65,2,-1,61,0.0,0.0,25.039288,121.612939,0,0,0,0,0,0,0,0,0,0,0,0,0,00000000
0C9A4249DBAE,2020-04-08,00:08:30,27.5,53.9,7,10,11,471,0,2,-1,61,61,78,73,1,-1,60,0.0,0.0,25.039288,121.612939,0,0,0,0,0,0,0,0,0,0,0,0,0,00000000
0C9A4249DBAE,2020-04-08,00:08:45,27.5,53.9,7,10,11,471,0,1,-1,60,51,85,77,2,-2,61,0.0,0.0,25.039288,121.612939,0,0,0,0,0,0,0,0,0,0,0,0,0,00000000
0C9A4249DBAE,2020-04-08,00:09:00,27.5,53.9,7,10,11,470,0,2,-2,61,60,72,88,2,-2,61,0.0,0.0,25.039288,121.612939,0,0,0,0,0,0,0,0,0,0,0,0,0,00000000
0C9A4249DBAE,2020-04-08,00:09:15,27.5,53.9,6,9,9,470,0,2,-2,61,42,70,65,2,-2,60,0.0,0.0,25.039288,121.612939,0,0,0,0,0,0,0,0,0,0,0,0,0,00000000
0C9A4249DBAE,2020-04-08,00:09:30,27.5,53.9,7,10,10,470,0,2,-2,60,46,84,61,2,-2,61,0.0,0.0,25.039288,121.612939,0,0,0,0,0,0,0,0,0,0,0,0,0,00000000
0C9A4249DBAE,2020-04-08,00:09:45,27.4,53.9,7,10,11,471,0,2,-2,61,48,83,68,2,-1,61,0.0,0.0,25.039288,121.612939,0,0,0,0,0,0,0,0,0,0,0,0,0,00000000
0C9A4249DBAE,2020-04-08,00:10:00,27.4,53.9,6,10,10,471,0,2,-1,61,50,70,67,2,-1,60,0.0,0.0,25.039288,121.612939,0,0,0,0,0,0,0,0,0,0,0,0,0,00000000
0C9A4249DBAE,2020-04-08,00:10:15,27.5,53.9,7,10,11,470,0,2,-1,60,65,71,80,3,-2,60,0.0,0.0,25.039288,121.612939,0,0,0,0,0,0,0,0,0,0,0,0,0,00000000
0C9A4249DBAE,2020-04-08,00:10:30,27.4,53.9,7,10,11,471,0,3,-2,60,39,67,59,2,-1,61,0.0,0.0,25.039288,121.612939,0,0,0,0,0,0,0,0,0,0,0,0,0,00000000
0C9A4249DBAE,2020-04-08,00:10:45,27.5,53.9,7,10,11,471,0,2,-1,61,58,86,89,2,-1,60,0.0,0.0,25.039288,121.612939,0,0,0,0,0,0,0,0,0,0,0,0,0,00000000
0C9A4249DBAE,2020-04-08,00:11:00,27.4,53.9,6,9,10,471,0,2,-1,60,59,76,63,3,-3,61,0.0,0.0,25.039288,121.612939,0,0,0,0,0,0,0,0,0,0,0,0,0,00000000
0C9A4249DBAE,2020-04-08,00:11:15,27.4,54.0,5,8,9,471,0,3,-3,61,62,76,69,3,-1,60,0.0,0.0,25.039288,121.612939,0,0,0,0,0,0,0,0,0,0,0,0,0,00000000
0C9A4249DBAE,2020-04-08,00:11:30,27.4,53.9,6,9,10,471,0,3,-1,60,65,73,65,2,-2,61,0.0,0.0,25.039288,121.612939,0,0,0,0,0,0,0,0,0,0,0,0,0,00000000
0C9A4249DBAE,2020-04-08,00:11:45,27.5,53.9,6,9,10,471,0,2,-2,61,46,73,76,2,-1,61,0.0,0.0,25.039288,121.612939,0,0,0,0,0,0,0,0,0,0,0,0,0,00000000
0C9A4249DBAE,2020-04-08,00:12:00,27.4,53.9,6,9,10,471,0,2,-1,61,56,67,59,2,-2,60,0.0,0.0,25.039288,121.612939,0,0,0,0,0,0,0,0,0,0,0,0,0,00000000
0C9A4249DBAE,2020-04-08,00:12:15,27.4,53.9,6,9,9,472,0,2,-2,60,62,63,68,2,-1,60,0.0,0.0,25.039288,121.612939,0,0,0,0,0,0,0,0,0,0,0,0,0,00000000
0C9A4249DBAE,2020-04-08,00:12:30,27.5,53.9,6,9,10,471,0,2,-1,60,64,70,80,2,-1,60,0.0,0.0,25.039288,121.612939,0,0,0,0,0,0,0,0,0,0,0,0,0,00000000
0C9A4249DBAE,2020-04-08,00:12:45,27.5,54.0,6,9,10,471,0,2,-1,60,62,69,86,2,-2,60,0.0,0.0,25.039288,121.612939,0,0,0,0,0,0,0,0,0,0,0,0,0,00000000
0C9A4249DBAE,2020-04-08,00:13:00,27.4,53.9,7,10,11,470,0,2,-2,60,48,84,83,2,-2,61,0.0,0.0,25.039288,121.612939,0,0,0,0,0,0,0,0,0,0,0,0,0,00000000
0C9A4249DBAE,2020-04-08,00:13:15,27.4,53.9,7,10,10,471,0,2,-2,61,52,84,81,2,-2,60,0.0,0.0,25.039288,121.612939,0,0,0,0,0,0,0,0,0,0,0,0,0,00000000
0C9A4249DBAE,2020-04-08,00:13:30,27.4,54.0,7,10,10,471,0,2,-2,60,52,68,87,2,-2,61,0.0,0.0,25.039288,121.612939,0,0,0,0,0,0,0,0,0,0,0,0,0,00000000
0C9A4249DBAE,2020-04-08,00:13:45,27.4,54.0,7,10,10,471,0,2,-2,61,58,67,85,2,-1,60,0.0,0.0,25.039288,121.612939,0,0,0,0,0,0,0,0,0,0,0,0,0,00000000
0C9A4249DBAE,2020-04-08,00:14:00,27.4,53.9,6,9,10,473,0,2,-1,60,52,67,85,2,-2,61,0.0,0.0,25.039288,121.612939,0,0,0,0,0,0,0,0,0,0,0,0,0,00000000
0C9A4249DBAE,2020-04-08,00:14:15,27.4,53.9,6,9,9,473,0,2,-2,61,56,78,78,2,-2,61,0.0,0.0,25.039288,121.612939,0,0,0,0,0,0,0,0,0,0,0,0,0,00000000
0C9A4249DBAE,2020-04-08,00:14:30,27.4,54.0,6,9,10,473,0,2,-2,61,50,75,71,2,-1,60,0.0,0.0,25.039288,121.612939,0,0,0,0,0,0,0,0,0,0,0,0,0,00000000
0C9A4249DBAE,2020-04-08,00:14:45,27.5,54.0,6,10,10,474,0,2,-1,60,30,75,79,2,-2,61,0.0,0.0,25.039288,121.612939,0,0,0,0,0,0,0,0,0,0,0,0,0,00000000
0C9A4249DBAE,2020-04-08,00:15:00,27.5,53.9,6,10,11,474,0,2,-2,61,66,82,79,2,-2,60,0.0,0.0,25.039288,121.612939,0,0,0,0,0,0,0,0,0,0,0,0,0,00000000
0C9A4249DBAE,2020-04-08,00:15:15,27.4,54.0,5,9,10,473,0,2,-2,60,46,74,73,2,-2,61,0.0,0.0,25.039288,121.612939,0,0,0,0,0,0,0,0,0,0,0,0,0,00000000
0C9A4249DBAE,2020-04-08,00:15:30,27.4,54.0,5,9,9,474,0,2,-2,61,48,80,70,2,-2,61,0.0,0.0,25.039288,121.612939,0,0,0,0,0,0,0,0,0,0,0,0,0,00000000
0C9A4249DBAE,2020-04-08,00:15:45,27.4,53.9,5,9,10,472,0,2,-2,61,52,65,76,2,-1,61,0.0,0.0,25.039288,121.612939,0,0,0,0,0,0,0,0,0,0,0,0,0,00000000
0C9A4249DBAE,2020-04-08,00:16:00,27.4,54.0,5,9,9,472,0,2,-1,61,43,66,77,3,-3,60,0.0,0.0,25.039288,121.612939,0,0,0,0,0,0,0,0,0,0,0,0,0,00000000
0C9A4249DBAE,2020-04-08,00:16:15,27.4,54.0,5,9,9,471,0,3,-3,60,53,81,72,2,-2,60,0.0,0.0,25.039288,121.612939,0,0,0,0,0,0,0,0,0,0,0,0,0,00000000
0C9A4249DBAE,2020-04-08,00:16:30,27.4,54.0,5,9,9,471,0,2,-2,60,64,69,70,2,-1,60,0.0,0.0,25.039288,121.612939,0,0,0,0,0,0,0,0,0,0,0,0,0,00000000
0C9A4249DBAE,2020-04-08,00:16:45,27.4,54.0,6,10,10,471,0,2,-1,60,48,71,75,2,-2,61,0.0,0.0,25.039288,121.612939,0,0,0,0,0,0,0,0,0,0,0,0,0,00000000
0C9A4249DBAE,2020-04-08,00:17:00,27.4,53.9,6,10,10,471,0,2,-2,61,52,72,80,2,-2,61,0.0,0.0,25.039288,121.612939,0,0,0,0,0,0,0,0,0,0,0,0,0,00000000
0C9A4249DBAE,2020-04-08,00:17:15,27.4,54.0,7,10,10,471,0,2,-2,61,34,80,68,2,-2,61,0.0,0.0,25.039288,121.612939,0,0,0,0,0,0,0,0,0,0,0,0,0,00000000
0C9A4249DBAE,2020-04-08,00:17:30,27.4,54.0,6,9,10,472,0,2,-2,61,42,74,79,2,-2,60,0.0,0.0,25.039288,121.612939,0,0,0,0,0,0,0,0,0,0,0,0,0,00000000
0C9A4249DBAE,2020-04-08,00:17:45,27.4,53.9,6,10,10,469,0,2,-2,60,57,76,77,3,-2,61,0.0,0.0,25.039288,121.612939,0,0,0,0,0,0,0,0,0,0,0,0,0,00000000
0C9A4249DBAE,2020-04-08,00:18:00,27.4,54.0,7,11,11,467,0,3,-2,61,62,93,69,3,-1,60,0.0,0.0,25.039288,121.612939,0,0,0,0,0,0,0,0,0,0,0,0,0,00000000
0C9A4249DBAE,2020-04-08,00:18:15,27.4,53.9,7,11,11,468,0,3,-1,60,50,72,55,1,-1,61,0.0,0.0,25.039288,121.612939,0,0,0,0,0,0,0,0,0,0,0,0,0,00000000
0C9A4249DBAE,2020-04-08,00:18:30,27.5,53.9,7,11,12,469,0,1,-1,61,60,79,76,3,-2,59,0.0,0.0,25.039288,121.612939,0,0,0,0,0,0,0,0,0,0,0,0,0,00000000
0C9A4249DBAE,2020-04-08,00:18:45,27.4,53.9,7,11,11,469,0,3,-2,59,55,81,73,2,-1,60,0.0,0.0,25.039288,121.612939,0,0,0,0,0,0,0,0,0,0,0,0,0,00000000
0C9A4249DBAE,2020-04-08,00:19:00,27.4,53.9,7,10,11,471,0,2,-1,60,70,87,76,2,-2,60,0.0,0.0,25.039288,121.612939,0,0,0,0,0,0,0,0,0,0,0,0,0,00000000
0C9A4249DBAE,2020-04-08,00:19:15,27.4,53.9,5,9,9,471,0,2,-2,60,57,72,80,3,-2,60,0.0,0.0,25.039288,121.612939,0,0,0,0,0,0,0,0,0,0,0,0,0,00000000
0C9A4249DBAE,2020-04-08,00:19:30,27.4,53.9,7,11,11,471,0,3,-2,60,47,59,65,2,-1,61,0.0,0.0,25.039288,121.612939,0,0,0,0,0,0,0,0,0,0,0,0,0,00000000
0C9A4249DBAE,2020-04-08,00:19:45,27.4,54.0,6,10,10,473,0,2,-1,61,58,81,86,2,-2,61,0.0,0.0,25.039288,121.612939,0,0,0,0,0,0,0,0,0,0,0,0,0,00000000
0C9A4249DBAE,2020-04-08,00:20:00,27.4,53.9,7,11,12,472,0,2,-2,61,48,80,70,2,-2,61,0.0,0.0,25.039288,121.612939,0,0,0,0,0,0,0,0,0,0,0,0,0,00000000
0C9A4249DBAE,2020-04-08,00:20:15,27.4,54.0,7,10,10,472,0,2,-2,61,68,79,67,2,-1,60,0.0,0.0,25.039288,121.612939,0,0,0,0,0,0,0,0,0,0,0,0,0,00000000
0C9A4249DBAE,2020-04-08,00:20:30,27.4,53.9,7,9,10,471,0,2,-1,60,63,82,70,1,-3,60,0.0,0.0,25.039288,121.612939,0,0,0,0,0,0,0,0,0,0,0,0,0,00000000
0C9A4249DBAE,2020-04-08,00:20:45,27.5,54.0,6,10,10,472,0,1,-3,60,51,87,79,2,-2,61,0.0,0.0,25.039288,121.612939,0,0,0,0,0,0,0,0,0,0,0,0,0,00000000
0C9A4249DBAE,2020-04-08,00:21:00,27.5,53.9,6,10,10,472,0,2,-2,61,44,80,62,2,-2,61,0.0,0.0,25.039288,121.612939,0,0,0,0,0,0,0,0,0,0,0,0,0,00000000
0C9A4249DBAE,2020-04-08,00:21:15,27.4,53.9,6,10,11,471,0,2,-2,61,44,81,76,2,-1,61,0.0,0.0,25.039288,121.612939,0,0,0,0,0,0,0,0,0,0,0,0,0,00000000
0C9A4249DBAE,2020-04-08,00:21:30,27.4,53.9,6,11,11,473,0,2,-1,61,44,87,71,2,-2,60,0.0,0.0,25.039288,121.612939,0,0,0,0,0,0,0,0,0,0,0,0,0,00000000
0C9A4249DBAE,2020-04-08,00:21:45,27.4,53.9,6,11,11,471,0,2,-2,60,50,65,78,2,-1,60,0.0,0.0,25.039288,121.612939,0,0,0,0,0,0,0,0,0,0,0,0,0,00000000
0C9A4249DBAE,2020-04-08,00:22:00,27.4,54.0,6,10,10,471,0,2,-1,60,57,81,77,3,-2,61,0.0,0.0,25.039288,121.612939,0,0,0,0,0,0,0,0,0,0,0,0,0,00000000
0C9A4249DBAE,2020-04-08,00:22:15,27.4,53.9,6,10,10,472,0,3,-2,61,53,80,87,2,-2,60,0.0,0.0,25.039288,121.612939,0,0,0,0,0,0,0,0,0,0,0,0,0,00000000
0C9A4249DBAE,2020-04-08,00:22:30,27.4,53.9,6,10,10,474,0,2,-2,60,46,75,77,2,-1,61,0.0,0.0,25.039288,121.612939,0,0,0,0,0,0,0,0,0,0,0,0,0,00000000
0C9A4249DBAE,2020-04-08,00:22:45,27.4,53.9,6,10,10,475,0,2,-1,61,52,74,89,2,-1,60,0.0,0.0,25.039288,121.612939,0,0,0,0,0,0,0,0,0,0,0,0,0,00000000
0C9A4249DBAE,2020-04-08,00:23:00,27.4,54.0,7,10,11,475,0,2,-1,60,52,85,72,2,-2,60,0.0,0.0,25.039288,121.612939,0,0,0,0,0,0,0,0,0,0,0,0,0,00000000
0C9A4249DBAE,2020-04-08,00:23:15,27.4,54.0,6,10,10,475,0,2,-2,60,40,73,60,2,-1,60,0.0,0.0,25.039288,121.612939,0,0,0,0,0,0,0,0,0,0,0,0,0,00000000
0C9A4249DBAE,2020-04-08,00:23:30,27.5,53.9,7,10,10,475,0,2,-1,60,54,68,74,2,-1,60,0.0,0.0,25.039288,121.612939,0,0,0,0,0,0,0,0,0,0,0,0,0,00000000
0C9A4249DBAE,2020-04-08,00:23:45,27.4,53.9,6,10,10,476,0,2,-1,60,48,69,66,2,-2,60,0.0,0.0,25.039288,121.612939,0,0,0,0,0,0,0,0,0,0,0,0,0,00000000
0C9A4249DBAE,2020-04-08,00:24:00,27.4,53.9,6,10,10,475,0,2,-2,60,52,79,80,2,-1,60,0.0,0.0,25.039288,121.612939,0,0,0,0,0,0,0,0,0,0,0,0,0,00000000
0C9A4249DBAE,2020-04-08,00:24:15,27.4,53.9,7,11,11,475,0,2,-1,60,48,77,62,2,-2,60,0.0,0.0,25.039288,121.612939,0,0,0,0,0,0,0,0,0,0,0,0,0,00000000
0C9A4249DBAE,2020-04-08,00:24:30,27.4,53.9,6,10,11,474,0,2,-2,60,58,62,79,2,-2,61,0.0,0.0,25.039288,121.612939,0,0,0,0,0,0,0,0,0,0,0,0,0,00000000
0C9A4249DBAE,2020-04-08,00:24:45,27.5,53.9,6,10,10,474,0,2,-2,61,62,70,74,2,-2,61,0.0,0.0,25.039288,121.612939,0,0,0,0,0,0,0,0,0,0,0,0,0,00000000
0C9A4249DBAE,2020-04-08,00:25:00,27.4,53.9,7,10,11,474,0,2,-2,61,46,79,75,2,-1,60,0.0,0.0,25.039288,121.612939,0,0,0,0,0,0,0,0,0,0,0,0,0,00000000
0C9A4249DBAE,2020-04-08,00:25:15,27.4,53.9,7,9,10,475,0,2,-1,60,54,79,58,2,-2,60,0.0,0.0,25.039288,121.612939,0,0,0,0,0,0,0,0,0,0,0,0,0,00000000
0C9A4249DBAE,2020-04-08,00:25:30,27.4,53.9,7,10,10,474,0,2,-2,60,59,79,66,3,-1,60,0.0,0.0,25.039288,121.612939,0,0,0,0,0,0,0,0,0,0,0,0,0,00000000
0C9A4249DBAE,2020-04-08,00:25:45,27.5,53.9,7,10,11,475,0,3,-1,60,51,74,80,2,-1,60,0.0,0.0,25.039288,121.612939,0,0,0,0,0,0,0,0,0,0,0,0,0,00000000
0C9A4249DBAE,2020-04-08,00:26:00,27.4,53.9,7,11,11,474,0,2,-1,60,62,60,78,2,-1,60,0.0,0.0,25.039288,121.612939,0,0,0,0,0,0,0,0,0,0,0,0,0,00000000
0C9A4249DBAE,2020-04-08,00:26:15,27.5,53.9,6,12,12,474,0,2,-1,60,50,71,73,2,-2,61,0.0,0.0,25.039288,121.612939,0,0,0,0,0,0,0,0,0,0,0,0,0,00000000
0C9A4249DBAE,2020-04-08,00:26:30,27.4,53.9,7,12,12,473,0,2,-2,61,48,89,66,2,-1,61,0.0,0.0,25.039288,121.612939,0,0,0,0,0,0,0,0,0,0,0,0,0,00000000
0C9A4249DBAE,2020-04-08,00:26:45,27.5,53.9,6,10,10,474,0,2,-1,61,54,73,91,2,-2,60,0.0,0.0,25.039288,121.612939,0,0,0,0,0,0,0,0,0,0,0,0,0,00000000
0C9A4249DBAE,2020-04-08,00:27:00,27.5,53.9,7,10,11,472,0,2,-2,60,52,60,81,2,-2,61,0.0,0.0,25.039288,121.612939,0,0,0,0,0,0,0,0,0,0,0,0,0,00000000
0C9A4249DBAE,2020-04-08,00:27:15,27.5,53.9,6,10,11,472,0,2,-2,61,48,75,61,2,-1,60,0.0,0.0,25.039288,121.612939,0,0,0,0,0,0,0,0,0,0,0,0,0,00000000
0C9A4249DBAE,2020-04-08,00:27:30,27.4,53.9,6,10,11,472,0,2,-1,60,54,79,70,2,-2,60,0.0,0.0,25.039288,121.612939,0,0,0,0,0,0,0,0,0,0,0,0,0,00000000
0C9A4249DBAE,2020-04-08,00:27:45,27.4,53.9,6,10,10,472,0,2,-2,60,56,73,66,2,-1,60,0.0,0.0,25.039288,121.612939,0,0,0,0,0,0,0,0,0,0,0,0,0,00000000
0C9A4249DBAE,2020-04-08,00:28:00,27.4,53.9,6,10,10,472,0,2,-1,60,53,67,67,3,-2,61,0.0,0.0,25.039288,121.612939,0,0,0,0,0,0,0,0,0,0,0,0,0,00000000
0C9A4249DBAE,2020-04-08,00:28:15,27.4,54.0,6,9,9,471,0,3,-2,61,59,74,60,2,-2,61,0.0,0.0,25.039288,121.612939,0,0,0,0,0,0,0,0,0,0,0,0,0,00000000
0C9A4249DBAE,2020-04-08,00:28:30,27.4,53.9,6,10,10,471,0,2,-2,61,50,77,73,2,-1,60,0.0,0.0,25.039288,121.612939,0,0,0,0,0,0,0,0,0,0,0,0,0,00000000
0C9A4249DBAE,2020-04-08,00:28:45,27.4,53.9,6,10,10,471,0,2,-1,60,68,77,58,2,-2,60,0.0,0.0,25.039288,121.612939,0,0,0,0,0,0,0,0,0,0,0,0,0,00000000
0C9A4249DBAE,2020-04-08,00:29:00,27.4,54.0,6,9,9,472,0,2,-2,60,56,78,90,2,-2,60,0.0,0.0,25.039288,121.612939,0,0,0,0,0,0,0,0,0,0,0,0,0,00000000
0C9A4249DBAE,2020-04-08,00:29:15,27.4,54.0,6,9,9,471,0,2,-2,60,52,74,61,2,-2,61,0.0,0.0,25.039288,121.612939,0,0,0,0,0,0,0,0,0,0,0,0,0,00000000
0C9A4249DBAE,2020-04-08,00:29:30,27.4,54.0,6,9,9,473,0,2,-2,61,66,73,83,2,-1,60,0.0,0.0,25.039288,121.612939,0,0,0,0,0,0,0,0,0,0,0,0,0,00000000
0C9A4249DBAE,2020-04-08,00:29:45,27.4,54.0,6,9,10,473,0,2,-1,60,46,79,72,2,-2,60,0.0,0.0,25.039288,121.612939,0,0,0,0,0,0,0,0,0,0,0,0,0,00000000
0C9A4249DBAE,2020-04-08,00:30:00,27.4,54.0,7,10,11,473,0,2,-2,60,56,80,65,2,-2,61,0.0,0.0,25.039288,121.612939,0,0,0,0,0,0,0,0,0,0,0,0,0,00000000
0C9A4249DBAE,2020-04-08,00:30:15,27.4,54.0,6,10,10,473,0,2,-2,61,46,83,65,2,-1,60,0.0,0.0,25.039288,121.612939,0,0,0,0,0,0,0,0,0,0,0,0,0,00000000
0C9A4249DBAE,2020-04-08,00:30:30,27.4,54.0,6,9,10,473,0,2,-1,60,52,65,74,2,-2,60,0.0,0.0,25.039288,121.612939,0,0,0,0,0,0,0,0,0,0,0,0,0,00000000
0C9A4249DBAE,2020-04-08,00:30:45,27.4,54.0,6,9,9,473,0,2,-2,60,62,77,74,2,-1,60,0.0,0.0,25.039288,121.612939,0,0,0,0,0,0,0,0,0,0,0,0,0,00000000
0C9A4249DBAE,2020-04-08,00:31:00,27.4,54.0,6,9,10,473,0,2,-1,60,50,63,74,2,-2,60,0.0,0.0,25.039288,121.612939,0,0,0,0,0,0,0,0,0,0,0,0,0,00000000
0C9A4249DBAE,2020-04-08,00:31:15,27.4,54.0,6,9,10,473,0,2,-2,60,55,76,80,3,-2,60,0.0,0.0,25.039288,121.612939,0,0,0,0,0,0,0,0,0,0,0,0,0,00000000
0C9A4249DBAE,2020-04-08,00:31:30,27.4,54.0,6,10,11,473,0,3,-2,60,43,75,78,2,-1,60,0.0,0.0,25.039288,121.612939,0,0,0,0,0,0,0,0,0,0,0,0,0,00000000
0C9A4249DBAE,2020-04-08,00:31:45,27.4,54.0,6,10,10,472,0,2,-1,60,56,76,66,2,-1,60,0.0,0.0,25.039288,121.612939,0,0,0,0,0,0,0,0,0,0,0,0,0,00000000
0C9A4249DBAE,2020-04-08,00:32:00,27.4,54.0,6,10,10,472,0,2,-1,60,44,76,72,2,-1,60,0.0,0.0,25.039288,121.612939,0,0,0,0,0,0,0,0,0,0,0,0,0,00000000
0C9A4249DBAE,2020-04-08,00:32:15,27.4,54.0,6,10,10,471,0,2,-1,60,53,90,91,1,-1,61,0.0,0.0,25.039288,121.612939,0,0,0,0,0,0,0,0,0,0,0,0,0,00000000
0C9A4249DBAE,2020-04-08,00:32:30,27.4,54.0,6,9,9,471,0,1,-1,61,47,66,87,2,-1,60,0.0,0.0,25.039288,121.612939,0,0,0,0,0,0,0,0,0,0,0,0,0,00000000
0C9A4249DBAE,2020-04-08,00:32:45,27.4,54.1,6,9,9,472,0,2,-1,60,43,75,67,3,-2,61,0.0,0.0,25.039288,121.612939,0,0,0,0,0,0,0,0,0,0,0,0,0,00000000
0C9A4249DBAE,2020-04-08,00:33:00,27.4,54.1,6,9,9,472,0,3,-2,61,48,71,65,3,-1,60,0.0,0.0,25.039288,121.612939,0,0,0,0,0,0,0,0,0,0,0,0,0,00000000
0C9A4249DBAE,2020-04-08,00:33:15,27.4,54.0,6,9,9,472,0,3,-1,60,59,84,77,2,-1,61,0.0,0.0,25.039288,121.612939,0,0,0,0,0,0,0,0,0,0,0,0,0,00000000
0C9A4249DBAE,2020-04-08,00:33:30,27.4,54.0,6,9,9,472,0,2,-1,61,46,68,63,2,-1,60,0.0,0.0,25.039288,121.612939,0,0,0,0,0,0,0,0,0,0,0,0,0,00000000
0C9A4249DBAE,2020-04-08,00:33:45,27.4,54.1,7,9,9,471,0,2,-1,60,48,67,69,2,-2,61,0.0,0.0,25.039288,121.612939,0,0,0,0,0,0,0,0,0,0,0,0,0,00000000
0C9A4249DBAE,2020-04-08,00:34:00,27.4,54.1,6,9,9,471,0,2,-2,61,45,76,77,3,-2,60,0.0,0.0,25.039288,121.612939,0,0,0,0,0,0,0,0,0,0,0,0,0,00000000
0C9A4249DBAE,2020-04-08,00:34:15,27.4,54.1,6,8,9,471,0,3,-2,60,51,70,75,2,-2,61,0.0,0.0,25.039288,121.612939,0,0,0,0,0,0,0,0,0,0,0,0,0,00000000
0C9A4249DBAE,2020-04-08,00:34:30,27.4,54.1,5,9,9,471,0,2,-2,61,52,75,73,2,-1,60,0.0,0.0,25.039288,121.612939,0,0,0,0,0,0,0,0,0,0,0,0,0,00000000
0C9A4249DBAE,2020-04-08,00:34:45,27.4,54.1,6,9,10,471,0,2,-1,60,59,74,63,1,-1,61,0.0,0.0,25.039288,121.612939,0,0,0,0,0,0,0,0,0,0,0,0,0,00000000
0C9A4249DBAE,2020-04-08,00:35:00,27.3,54.1,6,10,10,469,0,1,-1,61,63,74,83,2,-1,60,0.0,0.0,25.039288,121.612939,0,0,0,0,0,0,0,0,0,0,0,0,0,00000000
0C9A4249DBAE,2020-04-08,00:35:15,27.3,54.0,6,11,11,470,0,2,-1,60,54,81,87,2,-2,61,0.0,0.0,25.039288,121.612939,0,0,0,0,0,0,0,0,0,0,0,0,0,00000000
0C9A4249DBAE,2020-04-08,00:35:30,27.3,54.1,6,11,11,470,0,2,-2,61,38,81,95,2,-1,60,0.0,0.0,25.039288,121.612939,0,0,0,0,0,0,0,0,0,0,0,0,0,00000000
0C9A4249DBAE,2020-04-08,00:35:45,27.4,54.0,6,10,11,470,0,2,-1,60,46,82,69,2,-1,61,0.0,0.0,25.039288,121.612939,0,0,0,0,0,0,0,0,0,0,0,0,0,00000000
0C9A4249DBAE,2020-04-08,00:36:00,27.4,54.1,6,11,11,471,0,2,-1,61,70,81,85,2,-2,60,0.0,0.0,25.039288,121.612939,0,0,0,0,0,0,0,0,0,0,0,0,0,00000000
0C9A4249DBAE,2020-04-08,00:36:15,27.3,54.1,6,11,11,471,0,2,-2,60,56,69,72,2,-1,60,0.0,0.0,25.039288,121.612939,0,0,0,0,0,0,0,0,0,0,0,0,0,00000000
0C9A4249DBAE,2020-04-08,00:36:30,27.4,54.0,7,10,11,471,0,2,-1,60,64,71,75,2,-2,61,0.0,0.0,25.039288,121.612939,0,0,0,0,0,0,0,0,0,0,0,0,0,00000000
0C9A4249DBAE,2020-04-08,00:36:45,27.4,54.1,7,11,11,471,0,2,-2,61,63,81,73,3,-1,60,0.0,0.0,25.039288,121.612939,0,0,0,0,0,0,0,0,0,0,0,0,0,00000000
0C9A4249DBAE,2020-04-08,00:37:00,27.4,54.1,7,10,11,473,0,3,-1,60,60,65,80,3,-2,60,0.0,0.0,25.039288,121.612939,0,0,0,0,0,0,0,0,0,0,0,0,0,00000000
0C9A4249DBAE,2020-04-08,00:37:15,27.4,54.0,7,10,10,474,0,3,-2,60,65,55,72,2,-1,60,0.0,0.0,25.039288,121.612939,0,0,0,0,0,0,0,0,0,0,0,0,0,00000000
0C9A4249DBAE,2020-04-08,00:37:30,27.4,54.1,5,8,9,474,0,2,-1,60,52,85,84,2,-2,60,0.0,0.0,25.039288,121.612939,0,0,0,0,0,0,0,0,0,0,0,0,0,00000000
0C9A4249DBAE,2020-04-08,00:37:45,27.4,54.0,6,8,9,474,0,2,-2,60,58,71,70,2,-1,60,0.0,0.0,25.039288,121.612939,0,0,0,0,0,0,0,0,0,0,0,0,0,00000000
0C9A4249DBAE,2020-04-08,00:38:00,27.4,54.1,6,9,10,473,0,2,-1,60,56,84,82,2,-1,60,0.0,0.0,25.039288,121.612939,0,0,0,0,0,0,0,0,0,0,0,0,0,00000000
0C9A4249DBAE,2020-04-08,00:38:15,27.4,54.0,6,9,10,473,0,2,-1,60,40,72,64,2,-1,60,0.0,0.0,25.039288,121.612939,0,0,0,0,0,0,0,0,0,0,0,0,0,00000000
0C9A4249DBAE,2020-04-08,00:38:30,27.4,54.0,7,10,10,473,0,2,-1,60,52,75,65,2,-2,61,0.0,0.0,25.039288,121.612939,0,0,0,0,0,0,0,0,0,0,0,0,0,00000000
0C9A4249DBAE,2020-04-08,00:38:45,27.4,54.0,7,10,10,472,0,2,-2,61,50,62,82,2,-2,61,0.0,0.0,25.039288,121.612939,0,0,0,0,0,0,0,0,0,0,0,0,0,00000000
0C9A4249DBAE,2020-04-08,00:39:00,27.4,54.0,7,10,10,471,0,2,-2,61,43,78,64,3,-2,61,0.0,0.0,25.039288,121.612939,0,0,0,0,0,0,0,0,0,0,0,0,0,00000000
0C9A4249DBAE,2020-04-08,00:39:15,27.4,54.0,7,10,10,471,0,3,-2,61,58,68,87,3,-2,60,0.0,0.0,25.039288,121.612939,0,0,0,0,0,0,0,0,0,0,0,0,0,00000000
0C9A4249DBAE,2020-04-08,00:39:30,27.4,54.1,6,9,9,472,0,3,-2,60,57,67,76,2,-1,60,0.0,0.0,25.039288,121.612939,0,0,0,0,0,0,0,0,0,0,0,0,0,00000000
0C9A4249DBAE,2020-04-08,00:39:45,27.4,54.0,6,9,9,472,0,2,-1,60,41,81,75,3,-2,61,0.0,0.0,25.039288,121.612939,0,0,0,0,0,0,0,0,0,0,0,0,0,00000000
0C9A4249DBAE,2020-04-08,00:40:00,27.4,54.1,6,9,9,471,0,3,-2,61,69,65,77,2,-1,60,0.0,0.0,25.039288,121.612939,0,0,0,0,0,0,0,0,0,0,0,0,0,00000000
0C9A4249DBAE,2020-04-08,00:40:15,27.4,54.0,6,10,10,472,0,2,-1,60,58,70,94,2,-1,60,0.0,0.0,25.039288,121.612939,0,0,0,0,0,0,0,0,0,0,0,0,0,00000000
0C9A4249DBAE,2020-04-08,00:40:30,27.4,54.1,6,10,10,470,0,2,-1,60,54,74,78,2,-1,60,0.0,0.0,25.039288,121.612939,0,0,0,0,0,0,0,0,0,0,0,0,0,00000000
0C9A4249DBAE,2020-04-08,00:40:45,27.4,54.0,6,10,10,468,0,2,-1,60,54,87,81,2,-2,61,0.0,0.0,25.039288,121.612939,0,0,0,0,0,0,0,0,0,0,0,0,0,00000000
0C9A4249DBAE,2020-04-08,00:41:00,27.4,54.1,6,10,10,468,0,2,-2,61,43,71,74,3,-1,61,0.0,0.0,25.039288,121.612939,0,0,0,0,0,0,0,0,0,0,0,0,0,00000000
0C9A4249DBAE,2020-04-08,00:41:15,27.4,54.1,6,10,10,468,0,3,-1,61,55,78,68,2,-1,61,0.0,0.0,25.039288,121.612939,0,0,0,0,0,0,0,0,0,0,0,0,0,00000000
0C9A4249DBAE,2020-04-08,00:41:30,27.4,54.1,6,10,10,468,0,2,-1,61,54,80,60,2,-1,61,0.0,0.0,25.039288,121.612939,0,0,0,0,0,0,0,0,0,0,0,0,0,00000000
0C9A4249DBAE,2020-04-08,00:41:45,27.4,54.0,6,10,10,470,0,2,-1,61,50,82,69,2,-1,60,0.0,0.0,25.039288,121.612939,0,0,0,0,0,0,0,0,0,0,0,0,0,00000000
0C9A4249DBAE,2020-04-08,00:42:00,27.4,54.0,6,9,9,469,0,2,-1,60,46,67,64,2,-2,60,0.0,0.0,25.039288,121.612939,0,0,0,0,0,0,0,0,0,0,0,0,0,00000000
0C9A4249DBAE,2020-04-08,00:42:15,27.4,54.0,6,8,8,470,0,2,-2,60,52,76,81,2,-2,61,0.0,0.0,25.039288,121.612939,0,0,0,0,0,0,0,0,0,0,0,0,0,00000000
0C9A4249DBAE,2020-04-08,00:42:30,27.4,54.0,5,7,8,470,0,2,-2,61,63,76,54,3,-2,61,0.0,0.0,25.039288,121.612939,0,0,0,0,0,0,0,0,0,0,0,0,0,00000000
0C9A4249DBAE,2020-04-08,00:42:45,27.4,54.0,4,7,7,471,0,3,-2,61,57,72,69,2,-2,60,0.0,0.0,25.039288,121.612939,0,0,0,0,0,0,0,0,0,0,0,0,0,00000000
0C9A4249DBAE,2020-04-08,00:43:00,27.4,54.0,5,8,8,471,0,2,-2,60,58,77,82,2,-1,60,0.0,0.0,25.039288,121.612939,0,0,0,0,0,0,0,0,0,0,0,0,0,00000000
0C9A4249DBAE,2020-04-08,00:43:15,27.4,54.0,5,9,9,471,0,2,-1,60,44,76,68,2,-1,60,0.0,0.0,25.039288,121.612939,0,0,0,0,0,0,0,0,0,0,0,0,0,00000000
0C9A4249DBAE,2020-04-08,00:43:30,27.4,54.0,5,8,8,471,0,2,-1,60,44,65,76,2,-2,60,0.0,0.0,25.039288,121.612939,0,0,0,0,0,0,0,0,0,0,0,0,0,00000000
0C9A4249DBAE,2020-04-08,00:43:45,27.4,53.9,5,9,9,471,0,2,-2,60,51,66,89,3,-2,61,0.0,0.0,25.039288,121.612939,0,0,0,0,0,0,0,0,0,0,0,0,0,00000000
0C9A4249DBAE,2020-04-08,00:44:00,27.4,54.0,5,8,9,470,0,3,-2,61,49,74,65,2,-2,60,0.0,0.0,25.039288,121.612939,0,0,0,0,0,0,0,0,0,0,0,0,0,00000000
0C9A4249DBAE,2020-04-08,00:44:15,27.4,53.9,5,9,9,470,0,2,-2,60,48,69,76,2,-1,60,0.0,0.0,25.039288,121.612939,0,0,0,0,0,0,0,0,0,0,0,0,0,00000000
0C9A4249DBAE,2020-04-08,00:44:30,27.4,54.0,6,10,11,470,0,2,-1,60,51,65,75,3,-2,61,0.0,0.0,25.039288,121.612939,0,0,0,0,0,0,0,0,0,0,0,0,0,00000000
0C9A4249DBAE,2020-04-08,00:44:45,27.4,54.0,6,10,10,470,0,3,-2,61,62,66,83,3,-2,60,0.0,0.0,25.039288,121.612939,0,0,0,0,0,0,0,0,0,0,0,0,0,00000000
0C9A4249DBAE,2020-04-08,00:45:00,27.4,53.9,5,9,9,470,0,3,-2,60,51,85,80,2,-1,60,0.0,0.0,25.039288,121.612939,0,0,0,0,0,0,0,0,0,0,0,0,0,00000000
0C9A4249DBAE,2020-04-08,00:45:15,27.4,53.9,6,9,10,470,0,2,-1,60,48,67,61,2,-2,61,0.0,0.0,25.039288,121.612939,0,0,0,0,0,0,0,0,0,0,0,0,0,00000000
0C9A4249DBAE,2020-04-08,00:45:30,27.4,53.9,5,8,9,470,0,2,-2,61,46,75,76,2,-1,61,0.0,0.0,25.039288,121.612939,0,0,0,0,0,0,0,0,0,0,0,0,0,00000000
0C9A4249DBAE,2020-04-08,00:45:45,27.4,53.9,6,9,9,470,0,2,-1,61,54,82,77,2,-1,60,0.0,0.0,25.039288,121.612939,0,0,0,0,0,0,0,0,0,0,0,0,0,00000000
0C9A4249DBAE,2020-04-08,00:46:00,27.4,54.0,6,8,9,471,0,2,-1,60,53,71,70,3,-2,60,0.0,0.0,25.039288,121.612939,0,0,0,0,0,0,0,0,0,0,0,0,0,00000000
0C9A4249DBAE,2020-04-08,00:46:15,27.4,54.0,5,7,8,471,0,3,-2,60,45,76,88,2,-2,60,0.0,0.0,25.039288,121.612939,0,0,0,0,0,0,0,0,0,0,0,0,0,00000000
0C9A4249DBAE,2020-04-08,00:46:30,27.4,54.0,5,8,8,471,0,2,-2,60,50,71,78,2,-1,60,0.0,0.0,25.039288,121.612939,0,0,0,0,0,0,0,0,0,0,0,0,0,00000000
0C9A4249DBAE,2020-04-08,00:46:45,27.4,54.0,5,8,8,471,0,2,-1,60,52,64,80,2,-1,60,0.0,0.0,25.039288,121.612939,0,0,0,0,0,0,0,0,0,0,0,0,0,00000000
0C9A4249DBAE,2020-04-08,00:47:00,27.4,54.0,5,9,9,470,0,2,-1,60,54,77,82,2,-2,60,0.0,0.0,25.039288,121.612939,0,0,0,0,0,0,0,0,0,0,0,0,0,00000000
0C9A4249DBAE,2020-04-08,00:47:15,27.4,54.0,4,8,8,470,0,2,-2,60,54,66,86,2,-2,60,0.0,0.0,25.039288,121.612939,0,0,0,0,0,0,0,0,0,0,0,0,0,00000000
0C9A4249DBAE,2020-04-08,00:47:30,27.4,54.0,6,9,10,470,0,2,-2,60,58,58,70,2,-2,60,0.0,0.0,25.039288,121.612939,0,0,0,0,0,0,0,0,0,0,0,0,0,00000000
0C9A4249DBAE,2020-04-08,00:47:45,27.4,54.0,5,8,8,470,0,2,-2,60,58,68,80,2,-2,60,0.0,0.0,25.039288,121.612939,0,0,0,0,0,0,0,0,0,0,0,0,0,00000000
0C9A4249DBAE,2020-04-08,00:48:00,27.4,54.0,6,9,10,470,0,2,-2,60,50,71,85,2,-1,61,0.0,0.0,25.039288,121.612939,0,0,0,0,0,0,0,0,0,0,0,0,0,00000000
0C9A4249DBAE,2020-04-08,00:48:15,27.4,54.0,6,9,9,470,0,2,-1,61,48,66,67,2,-1,60,0.0,0.0,25.039288,121.612939,0,0,0,0,0,0,0,0,0,0,0,0,0,00000000
0C9A4249DBAE,2020-04-08,00:48:30,27.5,54.0,6,9,9,470,0,2,-1,60,70,82,82,2,-1,60,0.0,0.0,25.039288,121.612939,0,0,0,0,0,0,0,0,0,0,0,0,0,00000000
0C9A4249DBAE,2020-04-08,00:48:45,27.4,54.0,6,9,9,470,0,2,-1,60,59,83,96,1,-2,60,0.0,0.0,25.039288,121.612939,0,0,0,0,0,0,0,0,0,0,0,0,0,00000000
0C9A4249DBAE,2020-04-08,00:49:00,27.4,54.0,6,9,9,470,0,1,-2,60,56,70,79,3,-2,61,0.0,0.0,25.039288,121.612939,0,0,0,0,0,0,0,0,0,0,0,0,0,00000000
0C9A4249DBAE,2020-04-08,00:49:15,27.4,53.9,6,8,8,471,0,3,-2,61,47,69,67,2,-1,60,0.0,0.0,25.039288,121.612939,0,0,0,0,0,0,0,0,0,0,0,0,0,00000000
0C9A4249DBAE,2020-04-08,00:49:30,27.4,54.0,5,7,8,471,0,2,-1,60,60,77,73,2,-2,61,0.0,0.0,25.039288,121.612939,0,0,0,0,0,0,0,0,0,0,0,0,0,00000000
0C9A4249DBAE,2020-04-08,00:49:45,27.4,53.9,5,7,8,470,0,2,-2,61,38,77,61,2,-1,60,0.0,0.0,25.039288,121.612939,0,0,0,0,0,0,0,0,0,0,0,0,0,00000000
0C9A4249DBAE,2020-04-08,00:50:00,27.4,53.9,5,8,8,470,0,2,-1,60,64,72,72,2,-1,60,0.0,0.0,25.039288,121.612939,0,0,0,0,0,0,0,0,0,0,0,0,0,00000000
0C9A4249DBAE,2020-04-08,00:50:15,27.4,53.9,5,8,8,471,0,2,-1,60,62,80,66,2,-1,60,0.0,0.0,25.039288,121.612939,0,0,0,0,0,0,0,0,0,0,0,0,0,00000000
0C9A4249DBAE,2020-04-08,00:50:30,27.4,53.9,5,9,10,469,0,2,-1,60,72,83,84,2,-2,60,0.0,0.0,25.039288,121.612939,0,0,0,0,0,0,0,0,0,0,0,0,0,00000000
0C9A4249DBAE,2020-04-08,00:50:45,27.4,53.9,5,8,9,469,0,2,-2,60,61,80,75,3,-2,61,0.0,0.0,25.039288,121.612939,0,0,0,0,0,0,0,0,0,0,0,0,0,00000000
0C9A4249DBAE,2020-04-08,00:51:00,27.4,53.9,5,9,10,468,0,3,-2,61,41,76,73,2,-2,60,0.0,0.0,25.039288,121.612939,0,0,0,0,0,0,0,0,0,0,0,0,0,00000000
0C9A4249DBAE,2020-04-08,00:51:15,27.4,53.9,5,9,10,469,0,2,-2,60,58,67,73,2,-1,61,0.0,0.0,25.039288,121.612939,0,0,0,0,0,0,0,0,0,0,0,0,0,00000000
0C9A4249DBAE,2020-04-08,00:51:30,27.4,53.9,5,8,9,469,0,2,-1,61,58,80,85,2,-1,60,0.0,0.0,25.039288,121.612939,0,0,0,0,0,0,0,0,0,0,0,0,0,00000000
0C9A4249DBAE,2020-04-08,00:51:45,27.4,53.9,6,9,9,469,0,2,-1,60,60,71,59,2,-2,61,0.0,0.0,25.039288,121.612939,0,0,0,0,0,0,0,0,0,0,0,0,0,00000000
0C9A4249DBAE,2020-04-08,00:52:00,27.4,53.9,5,9,10,468,0,2,-2,61,38,77,71,2,-1,60,0.0,0.0,25.039288,121.612939,0,0,0,0,0,0,0,0,0,0,0,0,0,00000000
0C9A4249DBAE,2020-04-08,00:52:15,27.4,53.9,6,9,10,468,0,2,-1,60,56,72,80,2,-1,60,0.0,0.0,25.039288,121.612939,0,0,0,0,0,0,0,0,0,0,0,0,0,00000000
0C9A4249DBAE,2020-04-08,00:52:30,27.4,53.9,6,10,11,468,0,2,-1,60,50,73,75,2,-2,61,0.0,0.0,25.039288,121.612939,0,0,0,0,0,0,0,0,0,0,0,0,0,00000000
0C9A4249DBAE,2020-04-08,00:52:45,27.4,53.9,6,9,10,468,0,2,-2,61,42,74,86,2,-2,61,0.0,0.0,25.039288,121.612939,0,0,0,0,0,0,0,0,0,0,0,0,0,00000000
0C9A4249DBAE,2020-04-08,00:53:00,27.4,53.9,6,9,10,467,0,2,-2,61,58,78,82,2,-2,61,0.0,0.0,25.039288,121.612939,0,0,0,0,0,0,0,0,0,0,0,0,0,00000000
0C9A4249DBAE,2020-04-08,00:53:15,27.4,54.0,6,9,9,467,0,2,-2,61,52,77,65,2,-1,60,0.0,0.0,25.039288,121.612939,0,0,0,0,0,0,0,0,0,0,0,0,0,00000000
0C9A4249DBAE,2020-04-08,00:53:30,27.4,54.0,5,9,10,468,0,2,-1,60,54,73,71,2,-2,61,0.0,0.0,25.039288,121.612939,0,0,0,0,0,0,0,0,0,0,0,0,0,00000000
0C9A4249DBAE,2020-04-08,00:53:45,27.4,53.9,5,9,9,468,0,2,-2,61,50,82,69,2,-2,60,0.0,0.0,25.039288,121.612939,0,0,0,0,0,0,0,0,0,0,0,0,0,00000000
0C9A4249DBAE,2020-04-08,00:54:00,27.4,53.9,5,9,10,469,0,2,-2,60,70,81,83,2,-1,59,0.0,0.0,25.039288,121.612939,0,0,0,0,0,0,0,0,0,0,0,0,0,00000000
0C9A4249DBAE,2020-04-08,00:54:15,27.4,53.9,5,9,10,469,0,2,-1,59,66,88,67,2,-1,60,0.0,0.0,25.039288,121.612939,0,0,0,0,0,0,0,0,0,0,0,0,0,00000000
0C9A4249DBAE,2020-04-08,00:54:30,27.4,53.9,6,10,11,469,0,2,-1,60,65,85,76,3,-2,60,0.0,0.0,25.039288,121.612939,0,0,0,0,0,0,0,0,0,0,0,0,0,00000000
0C9A4249DBAE,2020-04-08,00:54:45,27.4,53.9,6,9,10,469,0,3,-2,60,34,66,64,3,-2,60,0.0,0.0,25.039288,121.612939,0,0,0,0,0,0,0,0,0,0,0,0,0,00000000
0C9A4249DBAE,2020-04-08,00:55:00,27.5,53.9,6,9,10,470,0,3,-2,60,35,72,71,2,-2,61,0.0,0.0,25.039288,121.612939,0,0,0,0,0,0,0,0,0,0,0,0,0,00000000
0C9A4249DBAE,2020-04-08,00:55:15,27.4,53.9,6,8,9,470,0,2,-2,61,58,80,74,2,-2,61,0.0,0.0,25.039288,121.612939,0,0,0,0,0,0,0,0,0,0,0,0,0,00000000
0C9A4249DBAE,2020-04-08,00:55:30,27.4,53.9,5,8,9,470,0,2,-2,61,57,81,92,3,-1,61,0.0,0.0,25.039288,121.612939,0,0,0,0,0,0,0,0,0,0,0,0,0,00000000
0C9A4249DBAE,2020-04-08,00:55:45,27.4,53.9,5,9,10,470,0,3,-1,61,41,62,74,2,-1,61,0.0,0.0,25.039288,121.612939,0,0,0,0,0,0,0,0,0,0,0,0,0,00000000
0C9A4249DBAE,2020-04-08,00:56:00,27.4,53.9,5,9,10,470,0,2,-1,61,60,82,81,2,-1,60,0.0,0.0,25.039288,121.612939,0,0,0,0,0,0,0,0,0,0,0,0,0,00000000
0C9A4249DBAE,2020-04-08,00:56:15,27.4,53.9,5,9,9,468,0,2,-1,60,46,58,78,2,-1,60,0.0,0.0,25.039288,121.612939,0,0,0,0,0,0,0,0,0,0,0,0,0,00000000
0C9A4249DBAE,2020-04-08,00:56:30,27.4,53.9,5,8,8,467,0,2,-1,60,53,75,86,3,-2,60,0.0,0.0,25.039288,121.612939,0,0,0,0,0,0,0,0,0,0,0,0,0,00000000
0C9A4249DBAE,2020-04-08,00:56:45,27.4,53.9,5,8,8,467,0,3,-2,60,61,87,82,2,-1,60,0.0,0.0,25.039288,121.612939,0,0,0,0,0,0,0,0,0,0,0,0,0,00000000
0C9A4249DBAE,2020-04-08,00:57:00,27.4,53.9,-1,-1,-1,467,0,2,-1,60,54,72,75,2,-1,61,0.0,0.0,25.039288,121.612939,0,0,0,0,0,0,0,0,0,0,0,0,0,00000000
0C9A4249DBAE,2020-04-08,00:57:15,27.4,53.9,5,9,9,467,0,2,-1,61,42,64,76,2,-1,61,0.0,0.0,25.039288,121.612939,0,0,0,0,0,0,0,0,0,0,0,0,0,00000000
0C9A4249DBAE,2020-04-08,00:57:30,27.4,53.9,6,9,10,467,0,2,-1,61,54,72,79,2,-1,60,0.0,0.0,25.039288,121.612939,0,0,0,0,0,0,0,0,0,0,0,0,0,00000000
0C9A4249DBAE,2020-04-08,00:57:45,27.4,54.0,6,9,9,467,0,2,-1,60,56,83,98,2,-2,60,0.0,0.0,25.039288,121.612939,0,0,0,0,0,0,0,0,0,0,0,0,0,00000000
0C9A4249DBAE,2020-04-08,00:58:00,27.4,53.9,6,8,9,467,0,2,-2,60,50,80,82,2,-2,60,0.0,0.0,25.039288,121.612939,0,0,0,0,0,0,0,0,0,0,0,0,0,00000000
0C9A4249DBAE,2020-04-08,00:58:15,27.4,53.9,6,8,9,467,0,2,-2,60,64,78,85,2,-2,61,0.0,0.0,25.039288,121.612939,0,0,0,0,0,0,0,0,0,0,0,0,0,00000000
0C9A4249DBAE,2020-04-08,00:58:30,27.4,53.9,5,9,9,468,0,2,-2,61,63,88,102,3,-2,61,0.0,0.0,25.039288,121.612939,0,0,0,0,0,0,0,0,0,0,0,0,0,00000000
0C9A4249DBAE,2020-04-08,00:58:45,27.4,53.9,6,9,9,468,0,3,-2,61,55,78,85,2,-2,60,0.0,0.0,25.039288,121.612939,0,0,0,0,0,0,0,0,0,0,0,0,0,00000000
0C9A4249DBAE,2020-04-08,00:59:00,27.4,54.0,5,9,9,468,0,2,-2,60,53,80,79,1,-2,61,0.0,0.0,25.039288,121.612939,0,0,0,0,0,0,0,0,0,0,0,0,0,00000000
0C9A4249DBAE,2020-04-08,00:59:15,27.4,54.0,5,9,9,468,0,1,-2,61,61,86,83,2,-2,60,0.0,0.0,25.039288,121.612939,0,0,0,0,0,0,0,0,0,0,0,0,0,00000000
0C9A4249DBAE,2020-04-08,00:59:30,27.4,54.0,5,8,8,469,0,2,-2,60,40,65,83,2,-1,61,0.0,0.0,25.039288,121.612939,0,0,0,0,0,0,0,0,0,0,0,0,0,00000000
0C9A4249DBAE,2020-04-08,00:59:45,27.4,54.0,5,9,9,469,0,2,-1,61,56,77,80,2,-2,61,0.0,0.0,25.039288,121.612939,0,0,0,0,0,0,0,0,0,0,0,0,0,00000000
0C9A4249DBAE,2020-04-08,01:00:00,27.4,54.0,5,8,8,471,0,2,-2,61,40,67,85,2,-1,60,0.0,0.0,25.039288,121.612939,0,0,0,0,0,0,0,0,0,0,0,0,0,00000000
0C9A4249DBAE,2020-04-08,01:00:15,27.4,54.0,5,8,8,471,0,2,-1,60,54,63,73,2,-2,61,0.0,0.0,25.039288,121.612939,0,0,0,0,0,0,0,0,0,0,0,0,0,00000000
0C9A4249DBAE,2020-04-08,01:00:30,27.4,53.9,5,8,8,470,0,2,-2,61,61,56,81,1,-2,60,0.0,0.0,25.039288,121.612939,0,0,0,0,0,0,0,0,0,0,0,0,0,00000000
0C9A4249DBAE,2020-04-08,01:00:45,27.4,53.9,5,8,8,470,0,1,-2,60,51,71,80,2,-1,60,0.0,0.0,25.039288,121.612939,0,0,0,0,0,0,0,0,0,0,0,0,0,00000000
0C9A4249DBAE,2020-04-08,01:01:00,27.4,53.9,5,8,9,470,0,2,-1,60,58,75,86,2,-2,60,0.0,0.0,25.039288,121.612939,0,0,0,0,0,0,0,0,0,0,0,0,0,00000000
0C9A4249DBAE,2020-04-08,01:01:15,27.4,53.9,6,9,9,470,0,2,-2,60,54,69,74,2,-1,60,0.0,0.0,25.039288,121.612939,0,0,0,0,0,0,0,0,0,0,0,0,0,00000000
0C9A4249DBAE,2020-04-08,01:01:30,27.4,53.9,6,9,9,470,0,2,-1,60,42,66,78,2,-1,60,0.0,0.0,25.039288,121.612939,0,0,0,0,0,0,0,0,0,0,0,0,0,00000000
0C9A4249DBAE,2020-04-08,01:01:45,27.4,53.9,6,9,9,469,0,2,-1,60,51,78,67,1,-1,59,0.0,0.0,25.039288,121.612939,0,0,0,0,0,0,0,0,0,0,0,0,0,00000000
0C9A4249DBAE,2020-04-08,01:02:00,27.4,53.9,4,8,8,470,0,1,-1,59,42,78,71,1,-1,60,0.0,0.0,25.039288,121.612939,0,0,0,0,0,0,0,0,0,0,0,0,0,00000000
0C9A4249DBAE,2020-04-08,01:02:15,27.4,54.0,5,8,9,470,0,1,-1,60,47,76,64,2,-1,60,0.0,0.0,25.039288,121.612939,0,0,0,0,0,0,0,0,0,0,0,0,0,00000000
0C9A4249DBAE,2020-04-08,01:02:30,27.4,53.9,5,8,8,470,0,2,-1,60,66,76,76,2,-1,60,0.0,0.0,25.039288,121.612939,0,0,0,0,0,0,0,0,0,0,0,0,0,00000000
0C9A4249DBAE,2020-04-08,01:02:45,27.4,54.0,5,8,8,470,0,2,-1,60,54,70,88,2,-1,60,0.0,0.0,25.039288,121.612939,0,0,0,0,0,0,0,0,0,0,0,0,0,00000000
0C9A4249DBAE,2020-04-08,01:03:00,27.4,54.0,6,8,8,470,0,2,-1,60,54,69,86,2,-2,60,0.0,0.0,25.039288,121.612939,0,0,0,0,0,0,0,0,0,0,0,0,0,00000000
0C9A4249DBAE,2020-04-08,01:03:15,27.4,54.0,5,8,9,470,0,2,-2,60,64,79,78,2,-1,60,0.0,0.0,25.039288,121.612939,0,0,0,0,0,0,0,0,0,0,0,0,0,00000000
0C9A4249DBAE,2020-04-08,01:03:30,27.4,53.9,6,9,9,469,0,2,-1,60,56,82,68,2,-1,60,0.0,0.0,25.039288,121.612939,0,0,0,0,0,0,0,0,0,0,0,0,0,00000000
0C9A4249DBAE,2020-04-08,01:03:45,27.4,54.0,6,9,9,470,0,2,-1,60,28,63,60,2,-2,60,0.0,0.0,25.039288,121.612939,0,0,0,0,0,0,0,0,0,0,0,0,0,00000000
0C9A4249DBAE,2020-04-08,01:04:00,27.4,54.0,5,7,7,471,0,2,-2,60,54,70,73,2,-2,61,0.0,0.0,25.039288,121.612939,0,0,0,0,0,0,0,0,0,0,0,0,0,00000000
0C9A4249DBAE,2020-04-08,01:04:15,27.4,53.9,5,7,7,470,0,2,-2,61,48,68,81,2,-2,60,0.0,0.0,25.039288,121.612939,0,0,0,0,0,0,0,0,0,0,0,0,0,00000000
0C9A4249DBAE,2020-04-08,01:04:30,27.4,54.0,5,7,8,469,0,2,-2,60,54,73,72,2,-1,60,0.0,0.0,25.039288,121.612939,0,0,0,0,0,0,0,0,0,0,0,0,0,00000000
0C9A4249DBAE,2020-04-08,01:04:45,27.4,54.0,5,8,8,468,0,2,-1,60,40,71,66,2,-2,60,0.0,0.0,25.039288,121.612939,0,0,0,0,0,0,0,0,0,0,0,0,0,00000000
0C9A4249DBAE,2020-04-08,01:05:00,27.4,54.0,5,9,9,468,0,2,-2,60,77,73,78,3,-1,60,0.0,0.0,25.039288,121.612939,0,0,0,0,0,0,0,0,0,0,0,0,0,00000000
0C9A4249DBAE,2020-04-08,01:05:15,27.4,53.9,5,9,9,468,0,3,-1,60,45,73,76,2,-2,60,0.0,0.0,25.039288,121.612939,0,0,0,0,0,0,0,0,0,0,0,0,0,00000000
0C9A4249DBAE,2020-04-08,01:05:30,27.4,54.0,6,8,8,468,0,2,-2,60,57,71,79,1,-1,59,0.0,0.0,25.039288,121.612939,0,0,0,0,0,0,0,0,0,0,0,0,0,00000000
0C9A4249DBAE,2020-04-08,01:05:45,27.4,53.9,5,8,8,469,0,1,-1,59,49,67,65,2,-2,60,0.0,0.0,25.039288,121.612939,0,0,0,0,0,0,0,0,0,0,0,0,0,00000000
0C9A4249DBAE,2020-04-08,01:06:00,27.4,53.9,5,8,8,470,0,2,-2,60,56,69,84,2,-1,60,0.0,0.0,25.039288,121.612939,0,0,0,0,0,0,0,0,0,0,0,0,0,00000000
0C9A4249DBAE,2020-04-08,01:06:15,27.4,54.0,6,9,9,469,0,2,-1,60,42,73,70,2,-2,60,0.0,0.0,25.039288,121.612939,0,0,0,0,0,0,0,0,0,0,0,0,0,00000000
0C9A4249DBAE,2020-04-08,01:06:30,27.4,54.0,5,8,8,468,0,2,-2,60,56,65,74,2,-1,60,0.0,0.0,25.039288,121.612939,0,0,0,0,0,0,0,0,0,0,0,0,0,00000000
0C9A4249DBAE,2020-04-08,01:06:45,27.4,53.9,4,7,7,468,0,2,-1,60,50,71,76,2,-2,60,0.0,0.0,25.039288,121.612939,0,0,0,0,0,0,0,0,0,0,0,0,0,00000000
0C9A4249DBAE,2020-04-08,01:07:00,27.4,53.9,4,8,8,469,0,2,-2,60,52,79,89,2,-1,61,0.0,0.0,25.039288,121.612939,0,0,0,0,0,0,0,0,0,0,0,0,0,00000000
0C9A4249DBAE,2020-04-08,01:07:15,27.4,54.0,4,8,8,469,0,2,-1,61,56,72,77,2,-1,60,0.0,0.0,25.039288,121.612939,0,0,0,0,0,0,0,0,0,0,0,0,0,00000000
0C9A4249DBAE,2020-04-08,01:07:30,27.4,53.9,5,9,9,468,0,2,-1,60,42,88,78,2,-1,60,0.0,0.0,25.039288,121.612939,0,0,0,0,0,0,0,0,0,0,0,0,0,00000000
0C9A4249DBAE,2020-04-08,01:07:45,27.4,53.9,6,9,10,469,0,2,-1,60,58,80,73,2,-1,61,0.0,0.0,25.039288,121.612939,0,0,0,0,0,0,0,0,0,0,0,0,0,00000000
0C9A4249DBAE,2020-04-08,01:08:00,27.4,54.0,5,8,9,469,0,2,-1,61,48,63,67,2,-2,60,0.0,0.0,25.039288,121.612939,0,0,0,0,0,0,0,0,0,0,0,0,0,00000000
0C9A4249DBAE,2020-04-08,01:08:15,27.4,53.9,5,9,9,468,0,2,-2,60,48,65,78,2,-1,60,0.0,0.0,25.039288,121.612939,0,0,0,0,0,0,0,0,0,0,0,0,0,00000000
0C9A4249DBAE,2020-04-08,01:08:30,27.4,53.9,5,8,9,467,0,2,-1,60,50,83,84,2,-2,60,0.0,0.0,25.039288,121.612939,0,0,0,0,0,0,0,0,0,0,0,0,0,00000000
0C9A4249DBAE,2020-04-08,01:08:45,27.4,53.9,4,7,8,467,0,2,-2,60,40,74,72,2,-2,60,0.0,0.0,25.039288,121.612939,0,0,0,0,0,0,0,0,0,0,0,0,0,00000000
0C9A4249DBAE,2020-04-08,01:09:00,27.4,53.9,5,7,7,467,0,2,-2,60,56,69,70,2,-1,60,0.0,0.0,25.039288,121.612939,0,0,0,0,0,0,0,0,0,0,0,0,0,00000000
0C9A4249DBAE,2020-04-08,01:09:15,27.4,53.9,3,6,6,467,0,2,-1,60,52,65,67,2,-2,61,0.0,0.0,25.039288,121.612939,0,0,0,0,0,0,0,0,0,0,0,0,0,00000000
0C9A4249DBAE,2020-04-08,01:09:30,27.4,53.9,5,8,8,467,0,2,-2,61,47,73,63,1,-1,60,0.0,0.0,25.039288,121.612939,0,0,0,0,0,0,0,0,0,0,0,0,0,00000000
0C9A4249DBAE,2020-04-08,01:09:45,27.4,53.9,5,8,8,467,0,1,-1,60,56,72,72,3,-1,60,0.0,0.0,25.039288,121.612939,0,0,0,0,0,0,0,0,0,0,0,0,0,00000000
0C9A4249DBAE,2020-04-08,01:10:00,27.4,53.9,5,7,8,466,0,3,-1,60,69,68,74,2,-1,60,0.0,0.0,25.039288,121.612939,0,0,0,0,0,0,0,0,0,0,0,0,0,00000000
0C9A4249DBAE,2020-04-08,01:10:15,27.4,53.9,5,8,8,466,0,2,-1,60,46,70,70,2,-1,60,0.0,0.0,25.039288,121.612939,0,0,0,0,0,0,0,0,0,0,0,0,0,00000000
0C9A4249DBAE,2020-04-08,01:10:30,27.4,53.9,5,7,7,466,0,2,-1,60,54,69,72,2,-2,60,0.0,0.0,25.039288,121.612939,0,0,0,0,0,0,0,0,0,0,0,0,0,00000000
0C9A4249DBAE,2020-04-08,01:10:45,27.4,53.9,6,8,8,467,0,2,-2,60,52,67,82,2,-1,60,0.0,0.0,25.039288,121.612939,0,0,0,0,0,0,0,0,0,0,0,0,0,00000000
0C9A4249DBAE,2020-04-08,01:11:00,27.4,53.9,6,9,9,467,0,2,-1,60,56,81,75,2,-2,61,0.0,0.0,25.039288,121.612939,0,0,0,0,0,0,0,0,0,0,0,0,0,00000000
0C9A4249DBAE,2020-04-08,01:11:15,27.4,53.9,5,8,8,467,0,2,-2,61,44,61,71,2,-1,60,0.0,0.0,25.039288,121.612939,0,0,0,0,0,0,0,0,0,0,0,0,0,00000000
0C9A4249DBAE,2020-04-08,01:11:30,27.4,53.9,5,8,8,467,0,2,-1,60,52,87,88,2,-2,60,0.0,0.0,25.039288,121.612939,0,0,0,0,0,0,0,0,0,0,0,0,0,00000000
0C9A4249DBAE,2020-04-08,01:11:45,27.4,53.9,5,8,9,467,0,2,-2,60,54,77,76,2,-1,60,0.0,0.0,25.039288,121.612939,0,0,0,0,0,0,0,0,0,0,0,0,0,00000000
0C9A4249DBAE,2020-04-08,01:12:00,27.4,53.9,5,8,9,467,0,2,-1,60,56,82,82,2,-1,60,0.0,0.0,25.039288,121.612939,0,0,0,0,0,0,0,0,0,0,0,0,0,00000000
0C9A4249DBAE,2020-04-08,01:12:15,27.4,53.9,5,8,8,467,0,2,-1,60,62,75,69,2,-2,61,0.0,0.0,25.039288,121.612939,0,0,0,0,0,0,0,0,0,0,0,0,0,00000000
0C9A4249DBAE,2020-04-08,01:12:30,27.4,54.0,5,8,8,467,0,2,-2,61,44,85,80,2,-1,61,0.0,0.0,25.039288,121.612939,0,0,0,0,0,0,0,0,0,0,0,0,0,00000000
0C9A4249DBAE,2020-04-08,01:12:45,27.4,54.0,5,8,8,466,0,2,-1,61,48,71,66,2,-2,61,0.0,0.0,25.039288,121.612939,0,0,0,0,0,0,0,0,0,0,0,0,0,00000000
0C9A4249DBAE,2020-04-08,01:13:00,27.4,54.0,5,8,8,466,0,2,-2,61,49,80,68,3,-2,61,0.0,0.0,25.039288,121.612939,0,0,0,0,0,0,0,0,0,0,0,0,0,00000000
0C9A4249DBAE,2020-04-08,01:13:15,27.4,54.0,5,8,8,466,0,3,-2,61,47,78,76,2,-2,61,0.0,0.0,25.039288,121.612939,0,0,0,0,0,0,0,0,0,0,0,0,0,00000000
0C9A4249DBAE,2020-04-08,01:13:30,27.4,54.0,5,8,8,466,0,2,-2,61,57,84,91,3,-2,60,0.0,0.0,25.039288,121.612939,0,0,0,0,0,0,0,0,0,0,0,0,0,00000000
0C9A4249DBAE,2020-04-08,01:13:45,27.4,54.0,5,7,7,466,0,3,-2,60,49,91,80,2,-1,60,0.0,0.0,25.039288,121.612939,0,0,0,0,0,0,0,0,0,0,0,0,0,00000000
0C9A4249DBAE,2020-04-08,01:14:00,27.4,54.0,5,9,9,466,0,2,-1,60,72,70,82,2,-1,60,0.0,0.0,25.039288,121.612939,0,0,0,0,0,0,0,0,0,0,0,0,0,00000000
0C9A4249DBAE,2020-04-08,01:14:15,27.4,54.0,5,8,8,466,0,2,-1,60,53,81,73,3,-2,61,0.0,0.0,25.039288,121.612939,0,0,0,0,0,0,0,0,0,0,0,0,0,00000000
0C9A4249DBAE,2020-04-08,01:14:30,27.4,54.0,5,10,10,466,0,3,-2,61,57,82,78,2,-2,61,0.0,0.0,25.039288,121.612939,0,0,0,0,0,0,0,0,0,0,0,0,0,00000000
0C9A4249DBAE,2020-04-08,01:14:45,27.4,54.0,5,10,11,466,0,2,-2,61,60,76,71,2,-2,60,0.0,0.0,25.039288,121.612939,0,0,0,0,0,0,0,0,0,0,0,0,0,00000000
0C9A4249DBAE,2020-04-08,01:15:00,27.4,54.0,6,10,10,465,0,2,-2,60,62,88,73,2,-2,61,0.0,0.0,25.039288,121.612939,0,0,0,0,0,0,0,0,0,0,0,0,0,00000000
0C9A4249DBAE,2020-04-08,01:15:15,27.4,54.0,6,10,10,465,0,2,-2,61,60,76,92,2,-2,61,0.0,0.0,25.039288,121.612939,0,0,0,0,0,0,0,0,0,0,0,0,0,00000000
0C9A4249DBAE,2020-04-08,01:15:30,27.4,54.0,6,10,10,466,0,2,-2,61,50,67,77,2,-1,60,0.0,0.0,25.039288,121.612939,0,0,0,0,0,0,0,0,0,0,0,0,0,00000000
0C9A4249DBAE,2020-04-08,01:15:45,27.4,54.0,4,8,8,466,0,2,-1,60,48,75,63,2,-2,61,0.0,0.0,25.039288,121.612939,0,0,0,0,0,0,0,0,0,0,0,0,0,00000000
0C9A4249DBAE,2020-04-08,01:16:00,27.4,54.0,4,7,8,466,0,2,-2,61,47,80,82,3,-2,61,0.0,0.0,25.039288,121.612939,0,0,0,0,0,0,0,0,0,0,0,0,0,00000000
0C9A4249DBAE,2020-04-08,01:16:15,27.4,54.0,5,8,8,466,0,3,-2,61,45,74,87,2,-2,60,0.0,0.0,25.039288,121.612939,0,0,0,0,0,0,0,0,0,0,0,0,0,00000000
0C9A4249DBAE,2020-04-08,01:16:30,27.3,54.0,4,6,6,466,0,2,-2,60,56,78,70,2,-2,60,0.0,0.0,25.039288,121.612939,0,0,0,0,0,0,0,0,0,0,0,0,0,00000000
0C9A4249DBAE,2020-04-08,01:16:45,27.4,54.0,5,7,8,468,0,2,-2,60,44,78,68,2,-2,60,0.0,0.0,25.039288,121.612939,0,0,0,0,0,0,0,0,0,0,0,0,0,00000000
0C9A4249DBAE,2020-04-08,01:17:00,27.4,54.0,4,7,7,468,0,2,-2,60,53,80,79,3,-2,61,0.0,0.0,25.039288,121.612939,0,0,0,0,0,0,0,0,0,0,0,0,0,00000000
0C9A4249DBAE,2020-04-08,01:17:15,27.4,54.0,5,8,8,470,0,3,-2,61,61,83,71,2,-1,60,0.0,0.0,25.039288,121.612939,0,0,0,0,0,0,0,0,0,0,0,0,0,00000000
0C9A4249DBAE,2020-04-08,01:17:30,27.4,54.0,5,9,9,471,0,2,-1,60,62,71,77,2,-2,61,0.0,0.0,25.039288,121.612939,0,0,0,0,0,0,0,0,0,0,0,0,0,00000000
0C9A4249DBAE,2020-04-08,01:17:45,27.3,54.0,5,9,9,471,0,2,-2,61,39,69,72,3,-3,61,0.0,0.0,25.039288,121.612939,0,0,0,0,0,0,0,0,0,0,0,0,0,00000000
0C9A4249DBAE,2020-04-08,01:18:00,27.3,54.0,5,9,10,470,0,3,-3,61,66,86,79,3,-1,60,0.0,0.0,25.039288,121.612939,0,0,0,0,0,0,0,0,0,0,0,0,0,00000000
0C9A4249DBAE,2020-04-08,01:18:15,27.4,54.0,4,9,9,470,0,3,-1,60,67,69,76,2,-2,60,0.0,0.0,25.039288,121.612939,0,0,0,0,0,0,0,0,0,0,0,0,0,00000000
0C9A4249DBAE,2020-04-08,01:18:30,27.3,54.0,4,8,8,470,0,2,-2,60,46,73,78,2,-1,60,0.0,0.0,25.039288,121.612939,0,0,0,0,0,0,0,0,0,0,0,0,0,00000000
0C9A4249DBAE,2020-04-08,01:18:45,27.4,54.0,5,9,9,470,0,2,-1,60,36,54,68,2,-1,60,0.0,0.0,25.039288,121.612939,0,0,0,0,0,0,0,0,0,0,0,0,0,00000000
0C9A4249DBAE,2020-04-08,01:19:00,27.4,54.0,5,7,8,471,0,2,-1,60,60,80,80,2,-1,60,0.0,0.0,25.039288,121.612939,0,0,0,0,0,0,0,0,0,0,0,0,0,00000000
0C9A4249DBAE,2020-04-08,01:19:15,27.4,54.0,5,7,7,470,0,2,-1,60,46,84,76,2,-1,60,0.0,0.0,25.039288,121.612939,0,0,0,0,0,0,0,0,0,0,0,0,0,00000000
0C9A4249DBAE,2020-04-08,01:19:30,27.4,54.0,5,7,8,469,0,2,-1,60,54,75,79,2,-2,61,0.0,0.0,25.039288,121.612939,0,0,0,0,0,0,0,0,0,0,0,0,0,00000000
0C9A4249DBAE,2020-04-08,01:19:45,27.4,54.0,3,6,6,468,0,2,-2,61,60,74,84,2,-2,61,0.0,0.0,25.039288,121.612939,0,0,0,0,0,0,0,0,0,0,0,0,0,00000000
0C9A4249DBAE,2020-04-08,01:20:00,27.4,54.0,5,8,8,468,0,2,-2,61,52,69,73,2,-1,60,0.0,0.0,25.039288,121.612939,0,0,0,0,0,0,0,0,0,0,0,0,0,00000000
0C9A4249DBAE,2020-04-08,01:20:15,27.3,54.0,4,8,8,468,0,2,-1,60,58,72,86,2,-1,60,0.0,0.0,25.039288,121.612939,0,0,0,0,0,0,0,0,0,0,0,0,0,00000000
0C9A4249DBAE,2020-04-08,01:20:30,27.4,54.0,4,8,8,468,0,2,-1,60,54,72,68,2,-1,62,0.0,0.0,25.039288,121.612939,0,0,0,0,0,0,0,0,0,0,0,0,0,00000000
0C9A4249DBAE,2020-04-08,01:20:45,27.3,54.0,3,7,7,468,0,2,-1,62,50,69,86,2,-2,60,0.0,0.0,25.039288,121.612939,0,0,0,0,0,0,0,0,0,0,0,0,0,00000000
0C9A4249DBAE,2020-04-08,01:21:00,27.4,54.0,5,8,8,468,0,2,-2,60,42,78,76,2,-2,60,0.0,0.0,25.039288,121.612939,0,0,0,0,0,0,0,0,0,0,0,0,0,00000000
0C9A4249DBAE,2020-04-08,01:21:15,27.4,54.0,5,8,8,466,0,2,-2,60,62,71,80,2,-1,60,0.0,0.0,25.039288,121.612939,0,0,0,0,0,0,0,0,0,0,0,0,0,00000000
0C9A4249DBAE,2020-04-08,01:21:30,27.4,54.0,5,7,8,467,0,2,-1,60,72,84,84,2,-1,60,0.0,0.0,25.039288,121.612939,0,0,0,0,0,0,0,0,0,0,0,0,0,00000000
0C9A4249DBAE,2020-04-08,01:21:45,27.4,54.0,4,7,8,467,0,2,-1,60,55,79,77,3,-2,61,0.0,0.0,25.039288,121.612939,0,0,0,0,0,0,0,0,0,0,0,0,0,00000000
0C9A4249DBAE,2020-04-08,01:22:00,27.4,54.0,5,8,8,468,0,3,-2,61,41,66,76,2,-2,61,0.0,0.0,25.039288,121.612939,0,0,0,0,0,0,0,0,0,0,0,0,0,00000000
0C9A4249DBAE,2020-04-08,01:22:15,27.4,54.0,4,8,8,468,0,2,-2,61,64,70,62,2,-2,61,0.0,0.0,25.039288,121.612939,0,0,0,0,0,0,0,0,0,0,0,0,0,00000000
0C9A4249DBAE,2020-04-08,01:22:30,27.4,54.0,6,8,9,468,0,2,-2,61,51,76,69,3,-2,60,0.0,0.0,25.039288,121.612939,0,0,0,0,0,0,0,0,0,0,0,0,0,00000000
0C9A4249DBAE,2020-04-08,01:22:45,27.4,54.0,5,8,9,469,0,3,-2,60,61,71,68,2,-1,60,0.0,0.0,25.039288,121.612939,0,0,0,0,0,0,0,0,0,0,0,0,0,00000000
0C9A4249DBAE,2020-04-08,01:23:00,27.4,54.0,5,8,9,469,0,2,-1,60,67,59,79,3,-2,61,0.0,0.0,25.039288,121.612939,0,0,0,0,0,0,0,0,0,0,0,0,0,00000000
0C9A4249DBAE,2020-04-08,01:23:15,27.4,54.0,5,8,8,468,0,3,-2,61,66,82,88,3,-2,61,0.0,0.0,25.039288,121.612939,0,0,0,0,0,0,0,0,0,0,0,0,0,00000000
0C9A4249DBAE,2020-04-08,01:23:30,27.4,54.0,5,8,8,469,0,3,-2,61,41,70,69,2,-2,60,0.0,0.0,25.039288,121.612939,0,0,0,0,0,0,0,0,0,0,0,0,0,00000000
0C9A4249DBAE,2020-04-08,01:23:45,27.4,54.0,4,7,7,469,0,2,-2,60,50,69,86,2,-1,60,0.0,0.0,25.039288,121.612939,0,0,0,0,0,0,0,0,0,0,0,0,0,00000000
0C9A4249DBAE,2020-04-08,01:24:00,27.4,54.0,5,8,8,469,0,2,-1,60,56,72,61,2,-1,61,0.0,0.0,25.039288,121.612939,0,0,0,0,0,0,0,0,0,0,0,0,0,00000000
0C9A4249DBAE,2020-04-08,01:24:15,27.3,54.0,5,9,9,469,0,2,-1,61,42,81,87,2,-2,60,0.0,0.0,25.039288,121.612939,0,0,0,0,0,0,0,0,0,0,0,0,0,00000000
0C9A4249DBAE,2020-04-08,01:24:30,27.4,54.0,5,8,9,469,0,2,-2,60,65,76,66,3,-2,60,0.0,0.0,25.039288,121.612939,0,0,0,0,0,0,0,0,0,0,0,0,0,00000000
0C9A4249DBAE,2020-04-08,01:24:45,27.4,54.0,5,9,9,469,0,3,-2,60,44,64,71,3,-2,61,0.0,0.0,25.039288,121.612939,0,0,0,0,0,0,0,0,0,0,0,0,0,00000000
0C9A4249DBAE,2020-04-08,01:25:00,27.3,54.0,5,9,9,469,0,3,-2,61,54,84,81,3,-2,60,0.0,0.0,25.039288,121.612939,0,0,0,0,0,0,0,0,0,0,0,0,0,00000000
0C9A4249DBAE,2020-04-08,01:25:15,27.4,54.0,5,8,8,469,0,3,-2,60,47,78,68,2,-2,60,0.0,0.0,25.039288,121.612939,0,0,0,0,0,0,0,0,0,0,0,0,0,00000000
0C9A4249DBAE,2020-04-08,01:25:30,27.4,54.0,5,8,8,469,0,2,-2,60,48,79,67,2,-1,61,0.0,0.0,25.039288,121.612939,0,0,0,0,0,0,0,0,0,0,0,0,0,00000000
0C9A4249DBAE,2020-04-08,01:25:45,27.4,54.0,5,7,7,469,0,2,-1,61,52,83,80,2,-2,61,0.0,0.0,25.039288,121.612939,0,0,0,0,0,0,0,0,0,0,0,0,0,00000000
0C9A4249DBAE,2020-04-08,01:26:00,27.4,54.0,5,7,8,469,0,2,-2,61,50,75,65,2,-1,60,0.0,0.0,25.039288,121.612939,0,0,0,0,0,0,0,0,0,0,0,0,0,00000000
0C9A4249DBAE,2020-04-08,01:26:15,27.3,54.0,5,7,8,469,0,2,-1,60,54,65,79,2,-2,61,0.0,0.0,25.039288,121.612939,0,0,0,0,0,0,0,0,0,0,0,0,0,00000000
0C9A4249DBAE,2020-04-08,01:26:30,27.4,54.0,5,8,8,469,0,2,-2,61,54,75,84,2,-1,61,0.0,0.0,25.039288,121.612939,0,0,0,0,0,0,0,0,0,0,0,0,0,00000000
0C9A4249DBAE,2020-04-08,01:26:45,27.4,54.0,5,8,8,469,0,2,-1,61,56,73,66,2,-2,61,0.0,0.0,25.039288,121.612939,0,0,0,0,0,0,0,0,0,0,0,0,0,00000000
0C9A4249DBAE,2020-04-08,01:27:00,27.3,54.0,4,8,8,469,0,2,-2,61,48,62,86,2,-2,61,0.0,0.0,25.039288,121.612939,0,0,0,0,0,0,0,0,0,0,0,0,0,00000000
0C9A4249DBAE,2020-04-08,01:27:15,27.3,54.1,4,8,8,469,0,2,-2,61,44,60,69,2,-2,60,0.0,0.0,25.039288,121.612939,0,0,0,0,0,0,0,0,0,0,0,0,0,00000000
0C9A4249DBAE,2020-04-08,01:27:30,27.4,54.0,5,8,8,469,0,2,-2,60,42,66,75,2,-2,61,0.0,0.0,25.039288,121.612939,0,0,0,0,0,0,0,0,0,0,0,0,0,00000000
0C9A4249DBAE,2020-04-08,01:27:45,27.4,54.0,5,8,8,469,0,2,-2,61,45,58,75,3,-2,60,0.0,0.0,25.039288,121.612939,0,0,0,0,0,0,0,0,0,0,0,0,0,00000000
0C9A4249DBAE,2020-04-08,01:28:00,27.4,54.0,4,7,8,469,0,3,-2,60,53,68,76,2,-2,60,0.0,0.0,25.039288,121.612939,0,0,0,0,0,0,0,0,0,0,0,0,0,00000000
0C9A4249DBAE,2020-04-08,01:28:15,27.4,54.0,4,6,7,470,0,2,-2,60,50,73,70,2,-1,60,0.0,0.0,25.039288,121.612939,0,0,0,0,0,0,0,0,0,0,0,0,0,00000000
0C9A4249DBAE,2020-04-08,01:28:30,27.3,54.0,5,8,9,470,0,2,-1,60,58,82,76,2,-1,60,0.0,0.0,25.039288,121.612939,0,0,0,0,0,0,0,0,0,0,0,0,0,00000000
0C9A4249DBAE,2020-04-08,01:28:45,27.4,54.0,4,6,7,470,0,2,-1,60,53,83,77,3,-2,61,0.0,0.0,25.039288,121.612939,0,0,0,0,0,0,0,0,0,0,0,0,0,00000000
0C9A4249DBAE,2020-04-08,01:29:00,27.3,54.0,4,6,6,470,0,3,-2,61,52,71,67,1,-1,60,0.0,0.0,25.039288,121.612939,0,0,0,0,0,0,0,0,0,0,0,0,0,00000000
0C9A4249DBAE,2020-04-08,01:29:15,27.4,54.0,5,7,7,471,0,1,-1,60,61,81,76,2,-2,60,0.0,0.0,25.039288,121.612939,0,0,0,0,0,0,0,0,0,0,0,0,0,00000000
0C9A4249DBAE,2020-04-08,01:29:30,27.4,54.0,5,8,8,471,0,2,-2,60,48,67,75,2,-1,61,0.0,0.0,25.039288,121.612939,0,0,0,0,0,0,0,0,0,0,0,0,0,00000000
0C9A4249DBAE,2020-04-08,01:29:45,27.4,54.0,5,8,8,470,0,2,-1,61,62,83,82,2,-2,61,0.0,0.0,25.039288,121.612939,0,0,0,0,0,0,0,0,0,0,0,0,0,00000000
0C9A4249DBAE,2020-04-08,01:30:00,27.4,54.0,5,8,8,471,0,2,-2,61,74,73,65,2,-1,60,0.0,0.0,25.039288,121.612939,0,0,0,0,0,0,0,0,0,0,0,0,0,00000000
0C9A4249DBAE,2020-04-08,01:30:15,27.4,54.0,5,8,8,471,0,2,-1,60,61,73,73,3,-2,61,0.0,0.0,25.039288,121.612939,0,0,0,0,0,0,0,0,0,0,0,0,0,00000000
0C9A4249DBAE,2020-04-08,01:30:30,27.4,54.0,5,7,7,471,0,3,-2,61,59,70,73,2,-2,60,0.0,0.0,25.039288,121.612939,0,0,0,0,0,0,0,0,0,0,0,0,0,00000000
0C9A4249DBAE,2020-04-08,01:30:45,27.4,54.0,5,7,8,471,0,2,-2,60,63,82,76,3,-2,60,0.0,0.0,25.039288,121.612939,0,0,0,0,0,0,0,0,0,0,0,0,0,00000000
0C9A4249DBAE,2020-04-08,01:31:00,27.4,54.0,5,7,7,471,0,3,-2,60,53,79,83,2,-3,59,0.0,0.0,25.039288,121.612939,0,0,0,0,0,0,0,0,0,0,0,0,0,00000000
0C9A4249DBAE,2020-04-08,01:31:15,27.4,54.0,5,7,8,470,0,2,-3,59,45,88,84,3,-1,61,0.0,0.0,25.039288,121.612939,0,0,0,0,0,0,0,0,0,0,0,0,0,00000000
0C9A4249DBAE,2020-04-08,01:31:30,27.4,54.0,4,7,7,469,0,3,-1,61,53,79,91,2,-2,60,0.0,0.0,25.039288,121.612939,0,0,0,0,0,0,0,0,0,0,0,0,0,00000000
0C9A4249DBAE,2020-04-08,01:31:45,27.4,54.0,4,7,7,469,0,2,-2,60,56,74,74,2,-2,60,0.0,0.0,25.039288,121.612939,0,0,0,0,0,0,0,0,0,0,0,0,0,00000000
0C9A4249DBAE,2020-04-08,01:32:00,27.4,54.0,4,7,7,469,0,2,-2,60,62,75,75,2,-1,61,0.0,0.0,25.039288,121.612939,0,0,0,0,0,0,0,0,0,0,0,0,0,00000000
0C9A4249DBAE,2020-04-08,01:32:15,27.3,54.0,5,8,8,469,0,2,-1,61,48,66,56,2,-1,59,0.0,0.0,25.039288,121.612939,0,0,0,0,0,0,0,0,0,0,0,0,0,00000000
0C9A4249DBAE,2020-04-08,01:32:30,27.3,54.0,5,8,9,469,0,2,-1,59,57,75,67,3,-2,60,0.0,0.0,25.039288,121.612939,0,0,0,0,0,0,0,0,0,0,0,0,0,00000000
0C9A4249DBAE,2020-04-08,01:32:45,27.4,54.0,5,8,9,469,0,3,-2,60,65,71,64,2,-1,60,0.0,0.0,25.039288,121.612939,0,0,0,0,0,0,0,0,0,0,0,0,0,00000000
0C9A4249DBAE,2020-04-08,01:33:00,27.4,54.0,4,8,8,469,0,2,-1,60,56,81,78,2,-2,60,0.0,0.0,25.039288,121.612939,0,0,0,0,0,0,0,0,0,0,0,0,0,00000000
0C9A4249DBAE,2020-04-08,01:33:15,27.4,54.0,4,8,9,468,0,2,-2,60,50,71,78,2,-1,60,0.0,0.0,25.039288,121.612939,0,0,0,0,0,0,0,0,0,0,0,0,0,00000000
0C9A4249DBAE,2020-04-08,01:33:30,27.4,54.0,5,8,8,468,0,2,-1,60,46,76,76,2,-1,60,0.0,0.0,25.039288,121.612939,0,0,0,0,0,0,0,0,0,0,0,0,0,00000000
0C9A4249DBAE,2020-04-08,01:33:45,27.4,54.0,5,8,8,468,0,2,-1,60,54,78,79,2,-1,61,0.0,0.0,25.039288,121.612939,0,0,0,0,0,0,0,0,0,0,0,0,0,00000000
0C9A4249DBAE,2020-04-08,01:34:00,27.4,54.0,5,7,7,468,0,2,-1,61,38,83,72,2,-2,61,0.0,0.0,25.039288,121.612939,0,0,0,0,0,0,0,0,0,0,0,0,0,00000000
0C9A4249DBAE,2020-04-08,01:34:15,27.4,54.0,5,8,8,468,0,2,-2,61,38,65,81,2,-1,60,0.0,0.0,25.039288,121.612939,0,0,0,0,0,0,0,0,0,0,0,0,0,00000000
0C9A4249DBAE,2020-04-08,01:34:30,27.4,54.0,5,7,7,469,0,2,-1,60,44,72,78,2,-1,60,0.0,0.0,25.039288,121.612939,0,0,0,0,0,0,0,0,0,0,0,0,0,00000000
0C9A4249DBAE,2020-04-08,01:34:45,27.4,54.0,4,7,7,468,0,2,-1,60,40,77,72,2,-2,60,0.0,0.0,25.039288,121.612939,0,0,0,0,0,0,0,0,0,0,0,0,0,00000000
0C9A4249DBAE,2020-04-08,01:35:00,27.3,54.0,5,8,8,468,0,2,-2,60,40,81,71,2,-3,61,0.0,0.0,25.039288,121.612939,0,0,0,0,0,0,0,0,0,0,0,0,0,00000000
0C9A4249DBAE,2020-04-08,01:35:15,27.4,54.0,5,8,8,468,0,2,-3,61,60,71,89,2,0,60,0.0,0.0,25.039288,121.612939,0,0,0,0,0,0,0,0,0,0,0,0,0,00000000
0C9A4249DBAE,2020-04-08,01:35:30,27.3,54.0,3,7,7,468,0,2,0,60,68,87,76,2,-1,60,0.0,0.0,25.039288,121.612939,0,0,0,0,0,0,0,0,0,0,0,0,0,00000000
0C9A4249DBAE,2020-04-08,01:35:45,27.3,54.0,4,7,8,468,0,2,-1,60,40,77,69,2,-2,61,0.0,0.0,25.039288,121.612939,0,0,0,0,0,0,0,0,0,0,0,0,0,00000000
0C9A4249DBAE,2020-04-08,01:36:00,27.4,54.1,4,7,7,468,0,2,-2,61,57,80,79,3,-2,60,0.0,0.0,25.039288,121.612939,0,0,0,0,0,0,0,0,0,0,0,0,0,00000000
0C9A4249DBAE,2020-04-08,01:36:15,27.3,54.1,4,7,7,468,0,3,-2,60,49,69,68,2,-1,60,0.0,0.0,25.039288,121.612939,0,0,0,0,0,0,0,0,0,0,0,0,0,00000000
0C9A4249DBAE,2020-04-08,01:36:30,27.4,54.1,5,9,9,468,0,2,-1,60,48,70,66,2,-1,60,0.0,0.0,25.039288,121.612939,0,0,0,0,0,0,0,0,0,0,0,0,0,00000000
0C9A4249DBAE,2020-04-08,01:36:45,27.3,54.0,5,8,9,467,0,2,-1,60,50,68,60,2,-1,60,0.0,0.0,25.039288,121.612939,0,0,0,0,0,0,0,0,0,0,0,0,0,00000000
0C9A4249DBAE,2020-04-08,01:37:00,27.4,54.1,4,8,8,466,0,2,-1,60,53,77,80,3,-2,60,0.0,0.0,25.039288,121.612939,0,0,0,0,0,0,0,0,0,0,0,0,0,00000000
0C9A4249DBAE,2020-04-08,01:37:15,27.4,54.0,5,7,7,466,0,3,-2,60,65,67,74,2,-1,60,0.0,0.0,25.039288,121.612939,0,0,0,0,0,0,0,0,0,0,0,0,0,00000000
0C9A4249DBAE,2020-04-08,01:37:30,27.3,54.1,4,7,7,466,0,2,-1,60,40,67,65,2,-2,61,0.0,0.0,25.039288,121.612939,0,0,0,0,0,0,0,0,0,0,0,0,0,00000000
0C9A4249DBAE,2020-04-08,01:37:45,27.4,54.0,3,6,6,466,0,2,-2,61,62,85,93,2,-1,60,0.0,0.0,25.039288,121.612939,0,0,0,0,0,0,0,0,0,0,0,0,0,00000000
0C9A4249DBAE,2020-04-08,01:38:00,27.4,54.0,4,6,6,467,0,2,-1,60,56,69,76,2,-2,60,0.0,0.0,25.039288,121.612939,0,0,0,0,0,0,0,0,0,0,0,0,0,00000000
0C9A4249DBAE,2020-04-08,01:38:15,27.4,54.1,4,6,7,468,0,2,-2,60,54,63,72,2,-1,60,0.0,0.0,25.039288,121.612939,0,0,0,0,0,0,0,0,0,0,0,0,0,00000000
0C9A4249DBAE,2020-04-08,01:38:30,27.3,54.1,4,7,7,469,0,2,-1,60,66,78,76,2,-1,60,0.0,0.0,25.039288,121.612939,0,0,0,0,0,0,0,0,0,0,0,0,0,00000000
0C9A4249DBAE,2020-04-08,01:38:45,27.3,54.1,3,7,7,469,0,2,-1,60,60,75,83,2,-2,61,0.0,0.0,25.039288,121.612939,0,0,0,0,0,0,0,0,0,0,0,0,0,00000000
0C9A4249DBAE,2020-04-08,01:39:00,27.4,54.1,4,8,8,468,0,2,-2,61,50,78,87,2,-2,60,0.0,0.0,25.039288,121.612939,0,0,0,0,0,0,0,0,0,0,0,0,0,00000000
0C9A4249DBAE,2020-04-08,01:39:15,27.3,54.1,5,8,8,469,0,2,-2,60,61,84,66,3,-2,60,0.0,0.0,25.039288,121.612939,0,0,0,0,0,0,0,0,0,0,0,0,0,00000000
0C9A4249DBAE,2020-04-08,01:39:30,27.3,54.0,4,8,8,468,0,3,-2,60,43,69,72,2,-1,60,0.0,0.0,25.039288,121.612939,0,0,0,0,0,0,0,0,0,0,0,0,0,00000000
0C9A4249DBAE,2020-04-08,01:39:45,27.3,54.1,5,8,8,470,0,2,-1,60,72,75,79,2,-2,61,0.0,0.0,25.039288,121.612939,0,0,0,0,0,0,0,0,0,0,0,0,0,00000000
0C9A4249DBAE,2020-04-08,01:40:00,27.3,54.1,4,7,7,471,0,2,-2,61,52,70,74,2,-2,61,0.0,0.0,25.039288,121.612939,0,0,0,0,0,0,0,0,0,0,0,0,0,00000000
0C9A4249DBAE,2020-04-08,01:40:15,27.3,54.1,5,8,8,470,0,2,-2,61,60,70,76,2,-2,61,0.0,0.0,25.039288,121.612939,0,0,0,0,0,0,0,0,0,0,0,0,0,00000000
0C9A4249DBAE,2020-04-08,01:40:30,27.3,54.1,5,8,8,470,0,2,-2,61,44,60,82,2,-2,61,0.0,0.0,25.039288,121.612939,0,0,0,0,0,0,0,0,0,0,0,0,0,00000000
0C9A4249DBAE,2020-04-08,01:40:45,27.3,54.1,4,6,6,468,0,2,-2,61,48,69,83,2,-1,60,0.0,0.0,25.039288,121.612939,0,0,0,0,0,0,0,0,0,0,0,0,0,00000000
0C9A4249DBAE,2020-04-08,01:41:00,27.3,54.1,5,7,7,468,0,2,-1,60,46,65,76,2,-2,60,0.0,0.0,25.039288,121.612939,0,0,0,0,0,0,0,0,0,0,0,0,0,00000000
0C9A4249DBAE,2020-04-08,01:41:15,27.3,54.1,5,8,8,469,0,2,-2,60,62,69,78,2,-1,60,0.0,0.0,25.039288,121.612939,0,0,0,0,0,0,0,0,0,0,0,0,0,00000000
0C9A4249DBAE,2020-04-08,01:41:30,27.3,54.1,5,7,7,468,0,2,-1,60,33,71,70,3,-2,60,0.0,0.0,25.039288,121.612939,0,0,0,0,0,0,0,0,0,0,0,0,0,00000000
0C9A4249DBAE,2020-04-08,01:41:45,27.4,54.1,4,6,6,468,0,3,-2,60,69,74,66,2,-2,60,0.0,0.0,25.039288,121.612939,0,0,0,0,0,0,0,0,0,0,0,0,0,00000000
0C9A4249DBAE,2020-04-08,01:42:00,27.3,54.0,4,6,6,469,0,2,-2,60,42,71,71,2,-1,61,0.0,0.0,25.039288,121.612939,0,0,0,0,0,0,0,0,0,0,0,0,0,00000000
0C9A4249DBAE,2020-04-08,01:42:15,27.3,54.0,4,6,6,468,0,2,-1,61,54,79,80,2,-2,61,0.0,0.0,25.039288,121.612939,0,0,0,0,0,0,0,0,0,0,0,0,0,00000000
0C9A4249DBAE,2020-04-08,01:42:30,27.3,54.1,4,6,6,466,0,2,-2,61,62,71,73,2,-1,60,0.0,0.0,25.039288,121.612939,0,0,0,0,0,0,0,0,0,0,0,0,0,00000000
0C9A4249DBAE,2020-04-08,01:42:45,27.3,54.1,4,6,7,466,0,2,-1,60,55,72,65,1,-1,59,0.0,0.0,25.039288,121.612939,0,0,0,0,0,0,0,0,0,0,0,0,0,00000000
0C9A4249DBAE,2020-04-08,01:43:00,27.3,54.1,4,6,6,466,0,1,-1,59,52,87,94,3,-2,61,0.0,0.0,25.039288,121.612939,0,0,0,0,0,0,0,0,0,0,0,0,0,00000000
0C9A4249DBAE,2020-04-08,01:43:15,27.3,54.1,4,7,8,466,0,3,-2,61,49,57,68,2,-1,61,0.0,0.0,25.039288,121.612939,0,0,0,0,0,0,0,0,0,0,0,0,0,00000000
0C9A4249DBAE,2020-04-08,01:43:30,27.3,54.1,4,7,8,467,0,2,-1,61,50,73,65,2,-2,60,0.0,0.0,25.039288,121.612939,0,0,0,0,0,0,0,0,0,0,0,0,0,00000000
0C9A4249DBAE,2020-04-08,01:43:45,27.3,54.0,4,7,8,466,0,2,-2,60,38,77,64,2,-1,60,0.0,0.0,25.039288,121.612939,0,0,0,0,0,0,0,0,0,0,0,0,0,00000000
0C9A4249DBAE,2020-04-08,01:44:00,27.3,54.1,4,7,7,466,0,2,-1,60,52,93,76,2,-2,60,0.0,0.0,25.039288,121.612939,0,0,0,0,0,0,0,0,0,0,0,0,0,00000000
0C9A4249DBAE,2020-04-08,01:44:15,27.3,54.1,5,7,7,466,0,2,-2,60,49,72,70,3,-2,60,0.0,0.0,25.039288,121.612939,0,0,0,0,0,0,0,0,0,0,0,0,0,00000000
0C9A4249DBAE,2020-04-08,01:44:30,27.3,54.1,4,7,7,466,0,3,-2,60,53,71,71,2,-1,59,0.0,0.0,25.039288,121.612939,0,0,0,0,0,0,0,0,0,0,0,0,0,00000000
0C9A4249DBAE,2020-04-08,01:44:45,27.3,54.0,5,7,7,466,0,2,-1,59,42,69,83,2,-2,60,0.0,0.0,25.039288,121.612939,0,0,0,0,0,0,0,0,0,0,0,0,0,00000000
0C9A4249DBAE,2020-04-08,01:45:00,27.3,54.0,4,7,8,466,0,2,-2,60,52,72,68,2,-2,60,0.0,0.0,25.039288,121.612939,0,0,0,0,0,0,0,0,0,0,0,0,0,00000000
0C9A4249DBAE,2020-04-08,01:45:15,27.3,54.1,4,7,7,466,0,2,-2,60,57,78,74,3,-2,60,0.0,0.0,25.039288,121.612939,0,0,0,0,0,0,0,0,0,0,0,0,0,00000000
0C9A4249DBAE,2020-04-08,01:45:30,27.3,54.1,4,8,8,466,0,3,-2,60,59,84,65,2,-2,61,0.0,0.0,25.039288,121.612939,0,0,0,0,0,0,0,0,0,0,0,0,0,00000000
0C9A4249DBAE,2020-04-08,01:45:45,27.3,54.1,4,7,7,466,0,2,-2,61,52,61,73,2,-1,60,0.0,0.0,25.039288,121.612939,0,0,0,0,0,0,0,0,0,0,0,0,0,00000000
0C9A4249DBAE,2020-04-08,01:46:00,27.3,54.1,4,8,8,466,0,2,-1,60,60,83,79,2,-2,61,0.0,0.0,25.039288,121.612939,0,0,0,0,0,0,0,0,0,0,0,0,0,00000000
0C9A4249DBAE,2020-04-08,01:46:15,27.3,54.1,4,7,7,467,0,2,-2,61,44,73,65,2,-1,60,0.0,0.0,25.039288,121.612939,0,0,0,0,0,0,0,0,0,0,0,0,0,00000000
0C9A4249DBAE,2020-04-08,01:46:30,27.3,54.1,4,7,7,467,0,2,-1,60,52,70,74,2,-1,60,0.0,0.0,25.039288,121.612939,0,0,0,0,0,0,0,0,0,0,0,0,0,00000000
0C9A4249DBAE,2020-04-08,01:46:45,27.3,54.1,4,7,7,467,0,2,-1,60,47,63,62,3,-2,60,0.0,0.0,25.039288,121.612939,0,0,0,0,0,0,0,0,0,0,0,0,0,00000000
0C9A4249DBAE,2020-04-08,01:47:00,27.3,54.1,4,6,7,466,0,3,-2,60,58,74,90,3,-2,60,0.0,0.0,25.039288,121.612939,0,0,0,0,0,0,0,0,0,0,0,0,0,00000000
0C9A4249DBAE,2020-04-08,01:47:15,27.3,54.1,4,6,6,467,0,3,-2,60,53,75,72,2,-1,60,0.0,0.0,25.039288,121.612939,0,0,0,0,0,0,0,0,0,0,0,0,0,00000000
0C9A4249DBAE,2020-04-08,01:47:30,27.3,54.1,5,8,8,466,0,2,-1,60,54,72,76,2,-1,60,0.0,0.0,25.039288,121.612939,0,0,0,0,0,0,0,0,0,0,0,0,0,00000000
0C9A4249DBAE,2020-04-08,01:47:45,27.3,54.1,4,7,7,466,0,2,-1,60,42,71,76,2,-2,60,0.0,0.0,25.039288,121.612939,0,0,0,0,0,0,0,0,0,0,0,0,0,00000000
0C9A4249DBAE,2020-04-08,01:48:00,27.3,54.1,4,7,7,465,0,2,-2,60,44,71,76,2,-1,60,0.0,0.0,25.039288,121.612939,0,0,0,0,0,0,0,0,0,0,0,0,0,00000000
0C9A4249DBAE,2020-04-08,01:48:15,27.3,54.1,4,7,7,464,0,2,-1,60,58,75,76,2,-2,60,0.0,0.0,25.039288,121.612939,0,0,0,0,0,0,0,0,0,0,0,0,0,00000000
0C9A4249DBAE,2020-04-08,01:48:30,27.3,54.1,4,6,6,464,0,2,-2,60,40,77,76,2,-1,60,0.0,0.0,25.039288,121.612939,0,0,0,0,0,0,0,0,0,0,0,0,0,00000000
0C9A4249DBAE,2020-04-08,01:48:45,27.3,54.1,4,7,7,464,0,2,-1,60,64,75,87,2,-2,61,0.0,0.0,25.039288,121.612939,0,0,0,0,0,0,0,0,0,0,0,0,0,00000000
0C9A4249DBAE,2020-04-08,01:49:00,27.3,54.1,4,7,7,465,0,2,-2,61,38,70,80,2,-2,61,0.0,0.0,25.039288,121.612939,0,0,0,0,0,0,0,0,0,0,0,0,0,00000000
0C9A4249DBAE,2020-04-08,01:49:15,27.3,54.1,4,6,7,465,0,2,-2,61,71,80,73,3,-2,60,0.0,0.0,25.039288,121.612939,0,0,0,0,0,0,0,0,0,0,0,0,0,00000000
0C9A4249DBAE,2020-04-08,01:49:30,27.3,54.1,4,6,7,465,0,3,-2,60,56,72,83,3,-2,61,0.0,0.0,25.039288,121.612939,0,0,0,0,0,0,0,0,0,0,0,0,0,00000000
0C9A4249DBAE,2020-04-08,01:49:45,27.3,54.1,4,6,7,466,0,3,-2,61,57,63,76,2,-1,61,0.0,0.0,25.039288,121.612939,0,0,0,0,0,0,0,0,0,0,0,0,0,00000000
0C9A4249DBAE,2020-04-08,01:50:00,27.3,54.1,5,7,7,466,0,2,-1,61,36,72,69,2,-1,60,0.0,0.0,25.039288,121.612939,0,0,0,0,0,0,0,0,0,0,0,0,0,00000000
0C9A4249DBAE,2020-04-08,01:50:15,27.3,54.2,4,7,7,466,0,2,-1,60,59,77,61,3,-2,61,0.0,0.0,25.039288,121.612939,0,0,0,0,0,0,0,0,0,0,0,0,0,00000000
0C9A4249DBAE,2020-04-08,01:50:30,27.3,54.2,5,7,7,466,0,3,-2,61,37,70,75,2,-2,60,0.0,0.0,25.039288,121.612939,0,0,0,0,0,0,0,0,0,0,0,0,0,00000000
0C9A4249DBAE,2020-04-08,01:50:45,27.3,54.1,4,7,8,466,0,2,-2,60,44,68,63,2,-2,61,0.0,0.0,25.039288,121.612939,0,0,0,0,0,0,0,0,0,0,0,0,0,00000000
0C9A4249DBAE,2020-04-08,01:51:00,27.3,54.1,5,7,8,466,0,2,-2,61,53,68,73,3,-2,60,0.0,0.0,25.039288,121.612939,0,0,0,0,0,0,0,0,0,0,0,0,0,00000000
0C9A4249DBAE,2020-04-08,01:51:15,27.3,54.2,5,8,8,466,0,3,-2,60,44,75,72,1,-1,60,0.0,0.0,25.039288,121.612939,0,0,0,0,0,0,0,0,0,0,0,0,0,00000000
0C9A4249DBAE,2020-04-08,01:51:30,27.3,54.2,4,7,7,466,0,1,-1,60,37,69,77,2,-2,61,0.0,0.0,25.039288,121.612939,0,0,0,0,0,0,0,0,0,0,0,0,0,00000000
0C9A4249DBAE,2020-04-08,01:51:45,27.3,54.2,4,6,7,466,0,2,-2,61,56,65,71,2,-1,60,0.0,0.0,25.039288,121.612939,0,0,0,0,0,0,0,0,0,0,0,0,0,00000000
0C9A4249DBAE,2020-04-08,01:52:00,27.3,54.2,4,6,6,466,0,2,-1,60,76,74,70,2,-1,60,0.0,0.0,25.039288,121.612939,0,0,0,0,0,0,0,0,0,0,0,0,0,00000000
0C9A4249DBAE,2020-04-08,01:52:15,27.3,54.2,4,6,7,466,0,2,-1,60,58,66,76,2,-1,60,0.0,0.0,25.039288,121.612939,0,0,0,0,0,0,0,0,0,0,0,0,0,00000000
0C9A4249DBAE,2020-04-08,01:52:30,27.3,54.2,4,7,7,466,0,2,-1,60,44,82,72,2,-1,60,0.0,0.0,25.039288,121.612939,0,0,0,0,0,0,0,0,0,0,0,0,0,00000000
0C9A4249DBAE,2020-04-08,01:52:45,27.3,54.1,5,7,7,467,0,2,-1,60,46,70,74,2,-1,60,0.0,0.0,25.039288,121.612939,0,0,0,0,0,0,0,0,0,0,0,0,0,00000000
0C9A4249DBAE,2020-04-08,01:53:00,27.3,54.2,4,6,6,467,0,2,-1,60,42,78,77,2,-1,61,0.0,0.0,25.039288,121.612939,0,0,0,0,0,0,0,0,0,0,0,0,0,00000000
0C9A4249DBAE,2020-04-08,01:53:15,27.3,54.2,4,6,6,467,0,2,-1,61,58,71,84,2,-2,61,0.0,0.0,25.039288,121.612939,0,0,0,0,0,0,0,0,0,0,0,0,0,00000000
0C9A4249DBAE,2020-04-08,01:53:30,27.3,54.2,4,6,6,467,0,2,-2,61,66,66,77,2,-2,60,0.0,0.0,25.039288,121.612939,0,0,0,0,0,0,0,0,0,0,0,0,0,00000000
0C9A4249DBAE,2020-04-08,01:53:45,27.3,54.2,4,7,7,467,0,2,-2,60,57,71,73,3,-1,61,0.0,0.0,25.039288,121.612939,0,0,0,0,0,0,0,0,0,0,0,0,0,00000000
0C9A4249DBAE,2020-04-08,01:54:00,27.3,54.1,5,7,8,466,0,3,-1,61,49,73,86,2,-2,61,0.0,0.0,25.039288,121.612939,0,0,0,0,0,0,0,0,0,0,0,0,0,00000000
0C9A4249DBAE,2020-04-08,01:54:15,27.3,54.2,4,7,8,467,0,2,-2,61,56,62,81,2,-2,60,0.0,0.0,25.039288,121.612939,0,0,0,0,0,0,0,0,0,0,0,0,0,00000000
0C9A4249DBAE,2020-04-08,01:54:30,27.3,54.1,3,6,6,467,0,2,-2,60,36,75,80,2,-1,60,0.0,0.0,25.039288,121.612939,0,0,0,0,0,0,0,0,0,0,0,0,0,00000000
0C9A4249DBAE,2020-04-08,01:54:45,27.3,54.1,4,7,7,466,0,2,-1,60,58,70,69,2,-1,59,0.0,0.0,25.039288,121.612939,0,0,0,0,0,0,0,0,0,0,0,0,0,00000000
0C9A4249DBAE,2020-04-08,01:55:00,27.3,54.1,4,7,7,466,0,2,-1,59,38,76,71,2,-1,60,0.0,0.0,25.039288,121.612939,0,0,0,0,0,0,0,0,0,0,0,0,0,00000000
0C9A4249DBAE,2020-04-08,01:55:15,27.3,54.1,4,7,7,468,0,2,-1,60,52,81,69,2,-2,61,0.0,0.0,25.039288,121.612939,0,0,0,0,0,0,0,0,0,0,0,0,0,00000000
0C9A4249DBAE,2020-04-08,01:55:30,27.3,54.1,5,8,8,469,0,2,-2,61,60,67,78,2,-1,61,0.0,0.0,25.039288,121.612939,0,0,0,0,0,0,0,0,0,0,0,0,0,00000000
0C9A4249DBAE,2020-04-08,01:55:45,27.3,54.1,5,8,8,469,0,2,-1,61,66,88,71,2,-1,60,0.0,0.0,25.039288,121.612939,0,0,0,0,0,0,0,0,0,0,0,0,0,00000000
0C9A4249DBAE,2020-04-08,01:56:00,27.3,54.0,4,7,8,469,0,2,-1,60,70,66,90,2,-1,60,0.0,0.0,25.039288,121.612939,0,0,0,0,0,0,0,0,0,0,0,0,0,00000000
0C9A4249DBAE,2020-04-08,01:56:15,27.3,54.0,4,7,7,469,0,2,-1,60,44,62,62,2,-1,60,0.0,0.0,25.039288,121.612939,0,0,0,0,0,0,0,0,0,0,0,0,0,00000000
0C9A4249DBAE,2020-04-08,01:56:30,27.3,54.1,4,7,8,469,0,2,-1,60,41,71,67,3,-2,61,0.0,0.0,25.039288,121.612939,0,0,0,0,0,0,0,0,0,0,0,0,0,00000000
0C9A4249DBAE,2020-04-08,01:56:45,27.3,54.0,4,7,8,468,0,3,-2,61,51,68,76,2,-2,61,0.0,0.0,25.039288,121.612939,0,0,0,0,0,0,0,0,0,0,0,0,0,00000000
0C9A4249DBAE,2020-04-08,01:57:00,27.3,54.0,4,6,6,469,0,2,-2,61,64,79,68,2,-1,61,0.0,0.0,25.039288,121.612939,0,0,0,0,0,0,0,0,0,0,0,0,0,00000000
0C9A4249DBAE,2020-04-08,01:57:15,27.4,54.0,4,6,6,469,0,2,-1,61,68,74,71,2,-1,60,0.0,0.0,25.039288,121.612939,0,0,0,0,0,0,0,0,0,0,0,0,0,00000000
0C9A4249DBAE,2020-04-08,01:57:30,27.3,54.0,4,5,5,468,0,2,-1,60,46,88,82,2,-1,60,0.0,0.0,25.039288,121.612939,0,0,0,0,0,0,0,0,0,0,0,0,0,00000000
0C9A4249DBAE,2020-04-08,01:57:45,27.3,54.0,4,6,6,468,0,2,-1,60,54,70,64,2,-1,60,0.0,0.0,25.039288,121.612939,0,0,0,0,0,0,0,0,0,0,0,0,0,00000000
0C9A4249DBAE,2020-04-08,01:58:00,27.3,54.1,4,7,7,468,0,2,-1,60,50,74,71,2,-1,61,0.0,0.0,25.039288,121.612939,0,0,0,0,0,0,0,0,0,0,0,0,0,00000000
0C9A4249DBAE,2020-04-08,01:58:15,27.3,54.0,5,8,8,470,0,2,-1,61,50,80,71,2,-1,60,0.0,0.0,25.039288,121.612939,0,0,0,0,0,0,0,0,0,0,0,0,0,00000000
0C9A4249DBAE,2020-04-08,01:58:30,27.3,54.1,4,7,7,470,0,2,-1,60,52,70,54,2,-1,60,0.0,0.0,25.039288,121.612939,0,0,0,0,0,0,0,0,0,0,0,0,0,00000000
0C9A4249DBAE,2020-04-08,01:58:45,27.3,54.0,5,7,7,471,0,2,-1,60,58,69,78,2,-2,60,0.0,0.0,25.039288,121.612939,0,0,0,0,0,0,0,0,0,0,0,0,0,00000000
0C9A4249DBAE,2020-04-08,01:59:00,27.3,54.1,4,6,6,471,0,2,-2,60,57,70,87,3,-2,61,0.0,0.0,25.039288,121.612939,0,0,0,0,0,0,0,0,0,0,0,0,0,00000000
0C9A4249DBAE,2020-04-08,01:59:15,27.3,54.1,4,6,6,471,0,3,-2,61,53,76,87,2,-2,60,0.0,0.0,25.039288,121.612939,0,0,0,0,0,0,0,0,0,0,0,0,0,00000000
0C9A4249DBAE,2020-04-08,01:59:30,27.3,54.1,4,6,6,471,0,2,-2,60,68,82,79,2,-2,61,0.0,0.0,25.039288,121.612939,0,0,0,0,0,0,0,0,0,0,0,0,0,00000000
0C9A4249DBAE,2020-04-08,01:59:45,27.3,54.1,4,6,6,471,0,2,-2,61,50,82,78,2,-2,61,0.0,0.0,25.039288,121.612939,0,0,0,0,0,0,0,0,0,0,0,0,0,00000000
0C9A4249DBAE,2020-04-08,02:00:00,27.3,54.1,3,5,5,471,0,2,-2,61,50,69,70,2,-1,61,0.0,0.0,25.039288,121.612939,0,0,0,0,0,0,0,0,0,0,0,0,0,00000000
0C9A4249DBAE,2020-04-08,02:00:15,27.3,54.1,4,6,6,470,0,2,-1,61,60,75,83,2,-2,60,0.0,0.0,25.039288,121.612939,0,0,0,0,0,0,0,0,0,0,0,0,0,00000000
0C9A4249DBAE,2020-04-08,02:00:30,27.3,54.1,4,6,6,470,0,2,-2,60,54,72,70,2,-2,60,0.0,0.0,25.039288,121.612939,0,0,0,0,0,0,0,0,0,0,0,0,0,00000000
0C9A4249DBAE,2020-04-08,02:00:45,27.3,54.1,3,5,6,469,0,2,-2,60,51,76,76,3,-2,60,0.0,0.0,25.039288,121.612939,0,0,0,0,0,0,0,0,0,0,0,0,0,00000000
0C9A4249DBAE,2020-04-08,02:01:00,27.3,54.1,3,5,5,469,0,3,-2,60,52,83,82,1,-1,60,0.0,0.0,25.039288,121.612939,0,0,0,0,0,0,0,0,0,0,0,0,0,00000000
0C9A4249DBAE,2020-04-08,02:01:15,27.3,54.1,3,5,5,469,0,1,-1,60,53,84,72,2,-1,60,0.0,0.0,25.039288,121.612939,0,0,0,0,0,0,0,0,0,0,0,0,0,00000000
0C9A4249DBAE,2020-04-08,02:01:30,27.3,54.1,4,7,7,469,0,2,-1,60,48,77,82,2,-2,60,0.0,0.0,25.039288,121.612939,0,0,0,0,0,0,0,0,0,0,0,0,0,00000000
0C9A4249DBAE,2020-04-08,02:01:45,27.3,54.1,3,7,7,468,0,2,-2,60,54,69,64,2,-1,60,0.0,0.0,25.039288,121.612939,0,0,0,0,0,0,0,0,0,0,0,0,0,00000000
0C9A4249DBAE,2020-04-08,02:02:00,27.3,54.1,4,8,8,468,0,2,-1,60,40,82,78,2,-1,60,0.0,0.0,25.039288,121.612939,0,0,0,0,0,0,0,0,0,0,0,0,0,00000000
0C9A4249DBAE,2020-04-08,02:02:15,27.3,54.1,4,7,8,468,0,2,-1,60,38,66,70,2,-1,60,0.0,0.0,25.039288,121.612939,0,0,0,0,0,0,0,0,0,0,0,0,0,00000000
0C9A4249DBAE,2020-04-08,02:02:30,27.3,54.1,4,7,7,468,0,2,-1,60,38,80,70,2,-1,60,0.0,0.0,25.039288,121.612939,0,0,0,0,0,0,0,0,0,0,0,0,0,00000000
0C9A4249DBAE,2020-04-08,02:02:45,27.3,54.1,4,6,6,468,0,2,-1,60,43,69,82,3,-2,60,0.0,0.0,25.039288,121.612939,0,0,0,0,0,0,0,0,0,0,0,0,0,00000000
0C9A4249DBAE,2020-04-08,02:03:00,27.3,54.1,4,6,6,468,0,3,-2,60,60,72,76,3,-2,60,0.0,0.0,25.039288,121.612939,0,0,0,0,0,0,0,0,0,0,0,0,0,00000000
0C9A4249DBAE,2020-04-08,02:03:15,27.3,54.1,4,7,7,468,0,3,-2,60,55,67,71,2,-1,61,0.0,0.0,25.039288,121.612939,0,0,0,0,0,0,0,0,0,0,0,0,0,00000000
0C9A4249DBAE,2020-04-08,02:03:30,27.3,54.1,4,6,6,468,0,2,-1,61,48,75,62,2,-2,61,0.0,0.0,25.039288,121.612939,0,0,0,0,0,0,0,0,0,0,0,0,0,00000000
0C9A4249DBAE,2020-04-08,02:03:45,27.3,54.1,4,6,7,468,0,2,-2,61,42,60,73,2,-2,60,0.0,0.0,25.039288,121.612939,0,0,0,0,0,0,0,0,0,0,0,0,0,00000000
0C9A4249DBAE,2020-04-08,02:04:00,27.3,54.1,4,7,7,468,0,2,-2,60,45,82,81,3,-2,61,0.0,0.0,25.039288,121.612939,0,0,0,0,0,0,0,0,0,0,0,0,0,00000000
0C9A4249DBAE,2020-04-08,02:04:15,27.3,54.1,4,6,7,468,0,3,-2,61,61,76,84,2,-2,61,0.0,0.0,25.039288,121.612939,0,0,0,0,0,0,0,0,0,0,0,0,0,00000000
0C9A4249DBAE,2020-04-08,02:04:30,27.3,54.1,4,7,8,468,0,2,-2,61,54,74,75,2,-2,60,0.0,0.0,25.039288,121.612939,0,0,0,0,0,0,0,0,0,0,0,0,0,00000000
0C9A4249DBAE,2020-04-08,02:04:45,27.3,54.1,4,7,8,467,0,2,-2,60,49,73,68,1,-1,60,0.0,0.0,25.039288,121.612939,0,0,0,0,0,0,0,0,0,0,0,0,0,00000000
0C9A4249DBAE,2020-04-08,02:05:00,27.3,54.1,4,7,8,467,0,1,-1,60,53,81,72,2,-2,60,0.0,0.0,25.039288,121.612939,0,0,0,0,0,0,0,0,0,0,0,0,0,00000000
0C9A4249DBAE,2020-04-08,02:05:15,27.3,54.1,4,7,8,467,0,2,-2,60,42,73,74,2,-1,60,0.0,0.0,25.039288,121.612939,0,0,0,0,0,0,0,0,0,0,0,0,0,00000000
0C9A4249DBAE,2020-04-08,02:05:30,27.3,54.1,4,8,9,467,0,2,-1,60,64,60,74,2,-1,60,0.0,0.0,25.039288,121.612939,0,0,0,0,0,0,0,0,0,0,0,0,0,00000000
0C9A4249DBAE,2020-04-08,02:05:45,27.3,54.1,4,6,7,467,0,2,-1,60,52,78,74,2,-1,60,0.0,0.0,25.039288,121.612939,0,0,0,0,0,0,0,0,0,0,0,0,0,00000000
0C9A4249DBAE,2020-04-08,02:06:00,27.3,54.1,4,7,8,468,0,2,-1,60,48,80,81,2,-1,61,0.0,0.0,25.039288,121.612939,0,0,0,0,0,0,0,0,0,0,0,0,0,00000000
0C9A4249DBAE,2020-04-08,02:06:15,27.3,54.1,4,6,7,467,0,2,-1,61,44,71,70,2,-2,61,0.0,0.0,25.039288,121.612939,0,0,0,0,0,0,0,0,0,0,0,0,0,00000000
0C9A4249DBAE,2020-04-08,02:06:30,27.3,54.1,4,6,7,467,0,2,-2,61,59,73,85,1,-1,60,0.0,0.0,25.039288,121.612939,0,0,0,0,0,0,0,0,0,0,0,0,0,00000000
0C9A4249DBAE,2020-04-08,02:06:45,27.3,54.1,4,6,7,468,0,1,-1,60,59,82,64,2,-1,60,0.0,0.0,25.039288,121.612939,0,0,0,0,0,0,0,0,0,0,0,0,0,00000000
0C9A4249DBAE,2020-04-08,02:07:00,27.3,54.1,4,6,6,467,0,2,-1,60,50,65,87,2,-2,61,0.0,0.0,25.039288,121.612939,0,0,0,0,0,0,0,0,0,0,0,0,0,00000000
0C9A4249DBAE,2020-04-08,02:07:15,27.3,54.1,4,7,7,467,0,2,-2,61,50,79,75,2,-1,60,0.0,0.0,25.039288,121.612939,0,0,0,0,0,0,0,0,0,0,0,0,0,00000000
0C9A4249DBAE,2020-04-08,02:07:30,27.3,54.1,4,7,7,468,0,2,-1,60,49,65,75,3,-2,61,0.0,0.0,25.039288,121.612939,0,0,0,0,0,0,0,0,0,0,0,0,0,00000000
0C9A4249DBAE,2020-04-08,02:07:45,27.3,54.1,4,7,7,468,0,3,-2,61,55,60,60,2,-2,61,0.0,0.0,25.039288,121.612939,0,0,0,0,0,0,0,0,0,0,0,0,0,00000000
0C9A4249DBAE,2020-04-08,02:08:00,27.3,54.1,4,7,7,467,0,2,-2,61,52,80,78,2,-2,61,0.0,0.0,25.039288,121.612939,0,0,0,0,0,0,0,0,0,0,0,0,0,00000000
0C9A4249DBAE,2020-04-08,02:08:15,27.3,54.1,4,6,6,468,0,2,-2,61,57,76,64,3,-2,61,0.0,0.0,25.039288,121.612939,0,0,0,0,0,0,0,0,0,0,0,0,0,00000000
0C9A4249DBAE,2020-04-08,02:08:30,27.3,54.1,4,6,6,466,0,3,-2,61,53,67,75,2,-1,60,0.0,0.0,25.039288,121.612939,0,0,0,0,0,0,0,0,0,0,0,0,0,00000000
0C9A4249DBAE,2020-04-08,02:08:45,27.3,54.1,4,7,7,465,0,2,-1,60,50,83,80,2,-2,60,0.0,0.0,25.039288,121.612939,0,0,0,0,0,0,0,0,0,0,0,0,0,00000000
0C9A4249DBAE,2020-04-08,02:09:00,27.3,54.1,2,5,5,465,0,2,-2,60,45,73,70,3,-1,60,0.0,0.0,25.039288,121.612939,0,0,0,0,0,0,0,0,0,0,0,0,0,00000000
0C9A4249DBAE,2020-04-08,02:09:15,27.3,54.1,4,6,7,464,0,3,-1,60,44,75,82,3,-2,60,0.0,0.0,25.039288,121.612939,0,0,0,0,0,0,0,0,0,0,0,0,0,00000000
0C9A4249DBAE,2020-04-08,02:09:30,27.3,54.1,4,6,6,465,0,3,-2,60,44,82,66,3,-2,60,0.0,0.0,25.039288,121.612939,0,0,0,0,0,0,0,0,0,0,0,0,0,00000000
0C9A4249DBAE,2020-04-08,02:09:45,27.3,54.1,4,7,7,465,0,3,-2,60,66,70,74,3,-2,60,0.0,0.0,25.039288,121.612939,0,0,0,0,0,0,0,0,0,0,0,0,0,00000000
0C9A4249DBAE,2020-04-08,02:10:00,27.3,54.1,4,6,6,466,0,3,-2,60,49,77,78,2,-1,60,0.0,0.0,25.039288,121.612939,0,0,0,0,0,0,0,0,0,0,0,0,0,00000000
0C9A4249DBAE,2020-04-08,02:10:15,27.3,54.1,4,6,6,466,0,2,-1,60,45,76,65,3,-1,61,0.0,0.0,25.039288,121.612939,0,0,0,0,0,0,0,0,0,0,0,0,0,00000000
0C9A4249DBAE,2020-04-08,02:10:30,27.3,54.0,3,5,5,465,0,3,-1,61,44,72,73,3,-1,60,0.0,0.0,25.039288,121.612939,0,0,0,0,0,0,0,0,0,0,0,0,0,00000000
0C9A4249DBAE,2020-04-08,02:10:45,27.3,54.1,4,6,7,465,0,3,-1,60,43,70,66,2,-1,60,0.0,0.0,25.039288,121.612939,0,0,0,0,0,0,0,0,0,0,0,0,0,00000000
0C9A4249DBAE,2020-04-08,02:11:00,27.3,54.1,4,6,7,466,0,2,-1,60,52,84,74,2,-1,60,0.0,0.0,25.039288,121.612939,0,0,0,0,0,0,0,0,0,0,0,0,0,00000000
0C9A4249DBAE,2020-04-08,02:11:15,27.3,54.1,4,7,8,466,0,2,-1,60,44,74,74,2,-1,60,0.0,0.0,25.039288,121.612939,0,0,0,0,0,0,0,0,0,0,0,0,0,00000000
0C9A4249DBAE,2020-04-08,02:11:30,27.3,54.0,4,7,7,466,0,2,-1,60,66,79,84,2,-2,60,0.0,0.0,25.039288,121.612939,0,0,0,0,0,0,0,0,0,0,0,0,0,00000000
0C9A4249DBAE,2020-04-08,02:11:45,27.3,54.0,3,5,5,466,0,2,-2,60,62,78,62,2,-2,60,0.0,0.0,25.039288,121.612939,0,0,0,0,0,0,0,0,0,0,0,0,0,00000000
0C9A4249DBAE,2020-04-08,02:12:00,27.3,54.0,4,6,6,466,0,2,-2,60,62,74,81,2,-2,61,0.0,0.0,25.039288,121.612939,0,0,0,0,0,0,0,0,0,0,0,0,0,00000000
0C9A4249DBAE,2020-04-08,02:12:15,27.3,54.0,4,6,6,466,0,2,-2,61,48,70,72,2,-2,61,0.0,0.0,25.039288,121.612939,0,0,0,0,0,0,0,0,0,0,0,0,0,00000000
0C9A4249DBAE,2020-04-08,02:12:30,27.3,54.1,4,6,7,466,0,2,-2,61,43,69,75,1,-1,60,0.0,0.0,25.039288,121.612939,0,0,0,0,0,0,0,0,0,0,0,0,0,00000000
0C9A4249DBAE,2020-04-08,02:12:45,27.3,54.1,4,7,7,465,0,1,-1,60,57,70,76,2,-1,60,0.0,0.0,25.039288,121.612939,0,0,0,0,0,0,0,0,0,0,0,0,0,00000000
0C9A4249DBAE,2020-04-08,02:13:00,27.3,54.1,4,7,7,466,0,2,-1,60,48,78,86,2,-1,60,0.0,0.0,25.039288,121.612939,0,0,0,0,0,0,0,0,0,0,0,0,0,00000000
0C9A4249DBAE,2020-04-08,02:13:15,27.3,54.1,4,7,8,466,0,2,-1,60,44,77,73,2,-2,61,0.0,0.0,25.039288,121.612939,0,0,0,0,0,0,0,0,0,0,0,0,0,00000000
0C9A4249DBAE,2020-04-08,02:13:30,27.3,54.1,4,7,7,466,0,2,-2,61,43,79,67,3,-1,60,0.0,0.0,25.039288,121.612939,0,0,0,0,0,0,0,0,0,0,0,0,0,00000000
0C9A4249DBAE,2020-04-08,02:13:45,27.3,54.1,4,6,7,467,0,3,-1,60,47,63,67,2,-2,61,0.0,0.0,25.039288,121.612939,0,0,0,0,0,0,0,0,0,0,0,0,0,00000000
0C9A4249DBAE,2020-04-08,02:14:00,27.3,54.1,5,7,7,467,0,2,-2,61,52,79,73,2,-1,60,0.0,0.0,25.039288,121.612939,0,0,0,0,0,0,0,0,0,0,0,0,0,00000000
0C9A4249DBAE,2020-04-08,02:14:15,27.3,54.1,5,7,7,467,0,2,-1,60,42,64,78,2,-1,60,0.0,0.0,25.039288,121.612939,0,0,0,0,0,0,0,0,0,0,0,0,0,00000000
0C9A4249DBAE,2020-04-08,02:14:30,27.3,54.2,5,7,8,467,0,2,-1,60,52,71,80,2,-2,60,0.0,0.0,25.039288,121.612939,0,0,0,0,0,0,0,0,0,0,0,0,0,00000000
0C9A4249DBAE,2020-04-08,02:14:45,27.3,54.1,4,7,7,466,0,2,-2,60,65,84,66,3,-2,60,0.0,0.0,25.039288,121.612939,0,0,0,0,0,0,0,0,0,0,0,0,0,00000000
0C9A4249DBAE,2020-04-08,02:15:00,27.3,54.1,4,7,7,466,0,3,-2,60,44,72,76,3,-2,60,0.0,0.0,25.039288,121.612939,0,0,0,0,0,0,0,0,0,0,0,0,0,00000000
0C9A4249DBAE,2020-04-08,02:15:15,27.3,54.1,4,6,6,466,0,3,-2,60,69,71,70,2,-1,60,0.0,0.0,25.039288,121.612939,0,0,0,0,0,0,0,0,0,0,0,0,0,00000000
0C9A4249DBAE,2020-04-08,02:15:30,27.3,54.1,4,7,7,466,0,2,-1,60,64,75,70,2,-2,60,0.0,0.0,25.039288,121.612939,0,0,0,0,0,0,0,0,0,0,0,0,0,00000000
0C9A4249DBAE,2020-04-08,02:15:45,27.3,54.1,4,6,6,466,0,2,-2,60,60,81,85,2,-1,59,0.0,0.0,25.039288,121.612939,0,0,0,0,0,0,0,0,0,0,0,0,0,00000000
0C9A4249DBAE,2020-04-08,02:16:00,27.3,54.1,4,6,6,466,0,2,-1,59,46,78,71,2,-1,60,0.0,0.0,25.039288,121.612939,0,0,0,0,0,0,0,0,0,0,0,0,0,00000000
0C9A4249DBAE,2020-04-08,02:16:15,27.3,54.1,2,5,5,465,0,2,-1,60,57,83,88,3,-2,60,0.0,0.0,25.039288,121.612939,0,0,0,0,0,0,0,0,0,0,0,0,0,00000000
0C9A4249DBAE,2020-04-08,02:16:30,27.3,54.1,4,6,7,465,0,3,-2,60,51,84,85,2,-2,61,0.0,0.0,25.039288,121.612939,0,0,0,0,0,0,0,0,0,0,0,0,0,00000000
0C9A4249DBAE,2020-04-08,02:16:45,27.3,54.1,3,6,6,466,0,2,-2,61,40,71,64,2,-1,61,0.0,0.0,25.039288,121.612939,0,0,0,0,0,0,0,0,0,0,0,0,0,00000000
0C9A4249DBAE,2020-04-08,02:17:00,27.3,54.1,4,7,7,466,0,2,-1,61,54,81,82,2,-2,61,0.0,0.0,25.039288,121.612939,0,0,0,0,0,0,0,0,0,0,0,0,0,00000000
0C9A4249DBAE,2020-04-08,02:17:15,27.3,54.1,4,6,7,465,0,2,-2,61,64,81,81,2,-1,60,0.0,0.0,25.039288,121.612939,0,0,0,0,0,0,0,0,0,0,0,0,0,00000000
0C9A4249DBAE,2020-04-08,02:17:30,27.3,54.1,3,5,6,465,0,2,-1,60,61,81,76,3,-2,60,0.0,0.0,25.039288,121.612939,0,0,0,0,0,0,0,0,0,0,0,0,0,00000000
0C9A4249DBAE,2020-04-08,02:17:45,27.3,54.1,3,7,7,465,0,3,-2,60,59,77,82,2,-1,60,0.0,0.0,25.039288,121.612939,0,0,0,0,0,0,0,0,0,0,0,0,0,00000000
0C9A4249DBAE,2020-04-08,02:18:00,27.3,54.1,3,7,8,465,0,2,-1,60,58,68,71,2,-1,61,0.0,0.0,25.039288,121.612939,0,0,0,0,0,0,0,0,0,0,0,0,0,00000000
0C9A4249DBAE,2020-04-08,02:18:15,27.3,54.1,4,6,6,465,0,2,-1,61,44,84,77,2,-1,60,0.0,0.0,25.039288,121.612939,0,0,0,0,0,0,0,0,0,0,0,0,0,00000000
0C9A4249DBAE,2020-04-08,02:18:30,27.3,54.1,3,6,6,464,0,2,-1,60,48,72,70,2,-1,60,0.0,0.0,25.039288,121.612939,0,0,0,0,0,0,0,0,0,0,0,0,0,00000000
0C9A4249DBAE,2020-04-08,02:18:45,27.3,54.1,3,5,6,464,0,2,-1,60,58,76,77,2,-1,61,0.0,0.0,25.039288,121.612939,0,0,0,0,0,0,0,0,0,0,0,0,0,00000000
0C9A4249DBAE,2020-04-08,02:19:00,27.3,54.1,3,5,6,464,0,2,-1,61,46,73,74,2,-2,61,0.0,0.0,25.039288,121.612939,0,0,0,0,0,0,0,0,0,0,0,0,0,00000000
0C9A4249DBAE,2020-04-08,02:19:15,27.3,54.1,3,5,5,465,0,2,-2,61,62,68,70,2,-2,61,0.0,0.0,25.039288,121.612939,0,0,0,0,0,0,0,0,0,0,0,0,0,00000000
0C9A4249DBAE,2020-04-08,02:19:30,27.3,54.1,3,5,6,466,0,2,-2,61,64,66,70,2,-2,61,0.0,0.0,25.039288,121.612939,0,0,0,0,0,0,0,0,0,0,0,0,0,00000000
0C9A4249DBAE,2020-04-08,02:19:45,27.3,54.0,4,6,6,466,0,2,-2,61,40,70,84,2,-2,61,0.0,0.0,25.039288,121.612939,0,0,0,0,0,0,0,0,0,0,0,0,0,00000000
0C9A4249DBAE,2020-04-08,02:20:00,27.3,54.1,4,6,6,466,0,2,-2,61,54,73,61,2,-1,60,0.0,0.0,25.039288,121.612939,0,0,0,0,0,0,0,0,0,0,0,0,0,00000000
0C9A4249DBAE,2020-04-08,02:20:15,27.3,54.0,4,6,6,466,0,2,-1,60,47,78,90,1,-1,60,0.0,0.0,25.039288,121.612939,0,0,0,0,0,0,0,0,0,0,0,0,0,00000000
0C9A4249DBAE,2020-04-08,02:20:30,27.3,54.0,4,5,6,467,0,1,-1,60,55,78,84,2,-1,60,0.0,0.0,25.039288,121.612939,0,0,0,0,0,0,0,0,0,0,0,0,0,00000000
0C9A4249DBAE,2020-04-08,02:20:45,27.3,54.1,3,5,6,466,0,2,-1,60,39,75,68,3,-2,60,0.0,0.0,25.039288,121.612939,0,0,0,0,0,0,0,0,0,0,0,0,0,00000000
0C9A4249DBAE,2020-04-08,02:21:00,27.3,54.1,3,5,5,466,0,3,-2,60,65,77,84,2,-1,60,0.0,0.0,25.039288,121.612939,0,0,0,0,0,0,0,0,0,0,0,0,0,00000000
0C9A4249DBAE,2020-04-08,02:21:15,27.3,54.1,4,6,6,466,0,2,-1,60,50,74,69,2,-1,61,0.0,0.0,25.039288,121.612939,0,0,0,0,0,0,0,0,0,0,0,0,0,00000000
0C9A4249DBAE,2020-04-08,02:21:30,27.3,54.1,4,6,6,465,0,2,-1,61,60,78,75,2,-1,60,0.0,0.0,25.039288,121.612939,0,0,0,0,0,0,0,0,0,0,0,0,0,00000000
0C9A4249DBAE,2020-04-08,02:21:45,27.3,54.1,4,6,6,466,0,2,-1,60,58,68,60,2,-1,60,0.0,0.0,25.039288,121.612939,0,0,0,0,0,0,0,0,0,0,0,0,0,00000000
0C9A4249DBAE,2020-04-08,02:22:00,27.3,54.1,4,6,6,466,0,2,-1,60,57,71,87,3,-2,61,0.0,0.0,25.039288,121.612939,0,0,0,0,0,0,0,0,0,0,0,0,0,00000000
0C9A4249DBAE,2020-04-08,02:22:15,27.3,54.1,4,6,7,467,0,3,-2,61,56,72,63,3,-2,60,0.0,0.0,25.039288,121.612939,0,0,0,0,0,0,0,0,0,0,0,0,0,00000000
0C9A4249DBAE,2020-04-08,02:22:30,27.3,54.1,4,7,7,467,0,3,-2,60,40,78,68,3,-2,60,0.0,0.0,25.039288,121.612939,0,0,0,0,0,0,0,0,0,0,0,0,0,00000000
0C9A4249DBAE,2020-04-08,02:22:45,27.3,54.1,4,7,7,467,0,3,-2,60,52,79,76,1,-1,60,0.0,0.0,25.039288,121.612939,0,0,0,0,0,0,0,0,0,0,0,0,0,00000000
0C9A4249DBAE,2020-04-08,02:23:00,27.3,54.1,3,7,7,467,0,1,-1,60,62,75,68,3,-2,60,0.0,0.0,25.039288,121.612939,0,0,0,0,0,0,0,0,0,0,0,0,0,00000000
0C9A4249DBAE,2020-04-08,02:23:15,27.3,54.1,3,7,7,468,0,3,-2,60,51,75,76,2,-1,60,0.0,0.0,25.039288,121.612939,0,0,0,0,0,0,0,0,0,0,0,0,0,00000000
0C9A4249DBAE,2020-04-08,02:23:30,27.3,54.1,3,6,7,468,0,2,-1,60,45,65,94,3,-2,60,0.0,0.0,25.039288,121.612939,0,0,0,0,0,0,0,0,0,0,0,0,0,00000000
0C9A4249DBAE,2020-04-08,02:23:45,27.3,54.1,3,6,7,468,0,3,-2,60,57,69,78,2,-1,60,0.0,0.0,25.039288,121.612939,0,0,0,0,0,0,0,0,0,0,0,0,0,00000000
0C9A4249DBAE,2020-04-08,02:24:00,27.3,54.1,4,7,7,468,0,2,-1,60,48,69,85,2,-2,61,0.0,0.0,25.039288,121.612939,0,0,0,0,0,0,0,0,0,0,0,0,0,00000000
0C9A4249DBAE,2020-04-08,02:24:15,27.3,54.1,4,6,6,468,0,2,-2,61,64,80,73,2,-2,60,0.0,0.0,25.039288,121.612939,0,0,0,0,0,0,0,0,0,0,0,0,0,00000000
0C9A4249DBAE,2020-04-08,02:24:30,27.3,54.2,4,6,7,469,0,2,-2,60,48,70,81,2,-2,61,0.0,0.0,25.039288,121.612939,0,0,0,0,0,0,0,0,0,0,0,0,0,00000000
0C9A4249DBAE,2020-04-08,02:24:45,27.3,54.1,3,6,6,468,0,2,-2,61,44,70,64,2,-2,61,0.0,0.0,25.039288,121.612939,0,0,0,0,0,0,0,0,0,0,0,0,0,00000000
0C9A4249DBAE,2020-04-08,02:25:00,27.3,54.1,3,5,5,468,0,2,-2,61,40,86,66,2,-2,61,0.0,0.0,25.039288,121.612939,0,0,0,0,0,0,0,0,0,0,0,0,0,00000000
0C9A4249DBAE,2020-04-08,02:25:15,27.3,54.1,3,5,6,466,0,2,-2,61,48,66,59,2,-2,60,0.0,0.0,25.039288,121.612939,0,0,0,0,0,0,0,0,0,0,0,0,0,00000000
0C9A4249DBAE,2020-04-08,02:25:30,27.3,54.1,3,6,6,467,0,2,-2,60,56,62,80,2,-2,60,0.0,0.0,25.039288,121.612939,0,0,0,0,0,0,0,0,0,0,0,0,0,00000000
0C9A4249DBAE,2020-04-08,02:25:45,27.3,54.1,4,6,6,468,0,2,-2,60,46,79,63,2,-1,61,0.0,0.0,25.039288,121.612939,0,0,0,0,0,0,0,0,0,0,0,0,0,00000000
0C9A4249DBAE,2020-04-08,02:26:00,27.3,54.1,4,7,7,468,0,2,-1,61,49,69,67,3,-2,60,0.0,0.0,25.039288,121.612939,0,0,0,0,0,0,0,0,0,0,0,0,0,00000000
0C9A4249DBAE,2020-04-08,02:26:15,27.3,54.1,4,7,7,468,0,3,-2,60,57,83,81,2,-1,59,0.0,0.0,25.039288,121.612939,0,0,0,0,0,0,0,0,0,0,0,0,0,00000000
0C9A4249DBAE,2020-04-08,02:26:30,27.3,54.1,3,5,5,468,0,2,-1,59,54,77,71,2,-2,60,0.0,0.0,25.039288,121.612939,0,0,0,0,0,0,0,0,0,0,0,0,0,00000000
0C9A4249DBAE,2020-04-08,02:26:45,27.3,54.1,3,5,6,467,0,2,-2,60,38,66,73,2,-2,61,0.0,0.0,25.039288,121.612939,0,0,0,0,0,0,0,0,0,0,0,0,0,00000000
0C9A4249DBAE,2020-04-08,02:27:00,27.3,54.1,4,6,6,467,0,2,-2,61,40,69,82,2,-1,61,0.0,0.0,25.039288,121.612939,0,0,0,0,0,0,0,0,0,0,0,0,0,00000000
0C9A4249DBAE,2020-04-08,02:27:15,27.3,54.1,3,5,5,467,0,2,-1,61,66,74,86,2,-1,61,0.0,0.0,25.039288,121.612939,0,0,0,0,0,0,0,0,0,0,0,0,0,00000000
0C9A4249DBAE,2020-04-08,02:27:30,27.3,54.1,2,4,4,467,0,2,-1,61,42,79,66,2,-2,61,0.0,0.0,25.039288,121.612939,0,0,0,0,0,0,0,0,0,0,0,0,0,00000000
0C9A4249DBAE,2020-04-08,02:27:45,27.3,54.1,2,4,4,467,0,2,-2,61,60,88,79,2,-2,60,0.0,0.0,25.039288,121.612939,0,0,0,0,0,0,0,0,0,0,0,0,0,00000000
0C9A4249DBAE,2020-04-08,02:28:00,27.3,54.1,2,4,5,467,0,2,-2,60,48,67,66,2,-1,60,0.0,0.0,25.039288,121.612939,0,0,0,0,0,0,0,0,0,0,0,0,0,00000000
0C9A4249DBAE,2020-04-08,02:28:15,27.3,54.1,2,4,5,467,0,2,-1,60,52,80,74,2,-1,60,0.0,0.0,25.039288,121.612939,0,0,0,0,0,0,0,0,0,0,0,0,0,00000000
0C9A4249DBAE,2020-04-08,02:28:30,27.3,54.1,3,5,5,466,0,2,-1,60,48,76,51,2,-1,61,0.0,0.0,25.039288,121.612939,0,0,0,0,0,0,0,0,0,0,0,0,0,00000000
0C9A4249DBAE,2020-04-08,02:28:45,27.3,54.1,3,5,6,466,0,2,-1,61,42,81,70,2,-2,61,0.0,0.0,25.039288,121.612939,0,0,0,0,0,0,0,0,0,0,0,0,0,00000000
0C9A4249DBAE,2020-04-08,02:29:00,27.3,54.1,3,5,6,466,0,2,-2,61,46,68,71,2,-2,60,0.0,0.0,25.039288,121.612939,0,0,0,0,0,0,0,0,0,0,0,0,0,00000000
0C9A4249DBAE,2020-04-08,02:29:15,27.3,54.1,4,6,6,466,0,2,-2,60,56,79,72,2,-1,60,0.0,0.0,25.039288,121.612939,0,0,0,0,0,0,0,0,0,0,0,0,0,00000000
0C9A4249DBAE,2020-04-08,02:29:30,27.3,54.0,4,5,5,465,0,2,-1,60,60,79,74,2,-2,60,0.0,0.0,25.039288,121.612939,0,0,0,0,0,0,0,0,0,0,0,0,0,00000000
0C9A4249DBAE,2020-04-08,02:29:45,27.3,54.0,2,3,3,466,0,2,-2,60,50,68,62,2,-2,60,0.0,0.0,25.039288,121.612939,0,0,0,0,0,0,0,0,0,0,0,0,0,00000000
0C9A4249DBAE,2020-04-08,02:30:00,27.3,54.0,3,4,4,466,0,2,-2,60,52,80,74,2,-2,60,0.0,0.0,25.039288,121.612939,0,0,0,0,0,0,0,0,0,0,0,0,0,00000000
0C9A4249DBAE,2020-04-08,02:30:15,27.3,54.0,3,5,5,466,0,2,-2,60,52,78,80,2,-2,60,0.0,0.0,25.039288,121.612939,0,0,0,0,0,0,0,0,0,0,0,0,0,00000000
0C9A4249DBAE,2020-04-08,02:30:30,27.3,54.0,3,5,5,466,0,2,-2,60,71,80,77,3,-2,61,0.0,0.0,25.039288,121.612939,0,0,0,0,0,0,0,0,0,0,0,0,0,00000000
0C9A4249DBAE,2020-04-08,02:30:45,27.3,54.0,3,5,6,466,0,3,-2,61,45,82,71,2,-2,60,0.0,0.0,25.039288,121.612939,0,0,0,0,0,0,0,0,0,0,0,0,0,00000000
0C9A4249DBAE,2020-04-08,02:31:00,27.3,54.0,3,6,6,466,0,2,-2,60,40,77,70,2,-1,60,0.0,0.0,25.039288,121.612939,0,0,0,0,0,0,0,0,0,0,0,0,0,00000000
0C9A4249DBAE,2020-04-08,02:31:15,27.3,54.1,3,6,7,466,0,2,-1,60,48,73,61,2,-2,61,0.0,0.0,25.039288,121.612939,0,0,0,0,0,0,0,0,0,0,0,0,0,00000000
0C9A4249DBAE,2020-04-08,02:31:30,27.3,54.1,3,6,6,465,0,2,-2,61,54,67,65,2,-1,60,0.0,0.0,25.039288,121.612939,0,0,0,0,0,0,0,0,0,0,0,0,0,00000000
0C9A4249DBAE,2020-04-08,02:31:45,27.3,54.1,4,6,7,464,0,2,-1,60,48,71,78,2,-2,60,0.0,0.0,25.039288,121.612939,0,0,0,0,0,0,0,0,0,0,0,0,0,00000000
0C9A4249DBAE,2020-04-08,02:32:00,27.3,54.1,4,7,7,463,0,2,-2,60,51,68,86,3,-2,60,0.0,0.0,25.039288,121.612939,0,0,0,0,0,0,0,0,0,0,0,0,0,00000000
0C9A4249DBAE,2020-04-08,02:32:15,27.3,54.1,4,6,7,466,0,3,-2,60,65,82,74,2,-2,60,0.0,0.0,25.039288,121.612939,0,0,0,0,0,0,0,0,0,0,0,0,0,00000000
0C9A4249DBAE,2020-04-08,02:32:30,27.3,54.1,4,6,7,467,0,2,-2,60,30,86,70,2,-2,60,0.0,0.0,25.039288,121.612939,0,0,0,0,0,0,0,0,0,0,0,0,0,00000000
0C9A4249DBAE,2020-04-08,02:32:45,27.3,54.1,4,6,6,467,0,2,-2,60,46,66,70,2,-2,60,0.0,0.0,25.039288,121.612939,0,0,0,0,0,0,0,0,0,0,0,0,0,00000000
0C9A4249DBAE,2020-04-08,02:33:00,27.3,54.1,4,6,6,468,0,2,-2,60,46,81,66,2,-1,60,0.0,0.0,25.039288,121.612939,0,0,0,0,0,0,0,0,0,0,0,0,0,00000000
0C9A4249DBAE,2020-04-08,02:33:15,27.3,54.1,2,4,5,468,0,2,-1,60,52,84,74,2,-1,60,0.0,0.0,25.039288,121.612939,0,0,0,0,0,0,0,0,0,0,0,0,0,00000000
0C9A4249DBAE,2020-04-08,02:33:30,27.3,54.1,3,6,6,468,0,2,-1,60,60,81,72,2,-2,60,0.0,0.0,25.039288,121.612939,0,0,0,0,0,0,0,0,0,0,0,0,0,00000000
0C9A4249DBAE,2020-04-08,02:33:45,27.3,54.1,3,6,6,468,0,2,-2,60,46,50,78,2,-2,60,0.0,0.0,25.039288,121.612939,0,0,0,0,0,0,0,0,0,0,0,0,0,00000000
0C9A4249DBAE,2020-04-08,02:34:00,27.3,54.1,3,5,6,468,0,2,-2,60,44,76,73,2,-2,61,0.0,0.0,25.039288,121.612939,0,0,0,0,0,0,0,0,0,0,0,0,0,00000000
0C9A4249DBAE,2020-04-08,02:34:15,27.3,54.1,3,6,6,467,0,2,-2,61,54,81,59,2,-1,60,0.0,0.0,25.039288,121.612939,0,0,0,0,0,0,0,0,0,0,0,0,0,00000000
0C9A4249DBAE,2020-04-08,02:34:30,27.3,54.1,3,6,6,467,0,2,-1,60,61,77,72,3,-2,60,0.0,0.0,25.039288,121.612939,0,0,0,0,0,0,0,0,0,0,0,0,0,00000000
0C9A4249DBAE,2020-04-08,02:34:45,27.3,54.2,3,5,5,467,0,3,-2,60,43,66,73,2,-2,61,0.0,0.0,25.039288,121.612939,0,0,0,0,0,0,0,0,0,0,0,0,0,00000000
0C9A4249DBAE,2020-04-08,02:35:00,27.3,54.1,3,5,5,466,0,2,-2,61,54,66,74,2,-2,61,0.0,0.0,25.039288,121.612939,0,0,0,0,0,0,0,0,0,0,0,0,0,00000000
0C9A4249DBAE,2020-04-08,02:35:15,27.3,54.1,3,5,5,466,0,2,-2,61,43,71,71,3,-1,60,0.0,0.0,25.039288,121.612939,0,0,0,0,0,0,0,0,0,0,0,0,0,00000000
0C9A4249DBAE,2020-04-08,02:35:30,27.3,54.2,2,5,5,466,0,3,-1,60,51,67,70,2,-2,60,0.0,0.0,25.039288,121.612939,0,0,0,0,0,0,0,0,0,0,0,0,0,00000000
0C9A4249DBAE,2020-04-08,02:35:45,27.3,54.2,3,6,7,467,0,2,-2,60,46,75,72,2,-1,60,0.0,0.0,25.039288,121.612939,0,0,0,0,0,0,0,0,0,0,0,0,0,00000000
0C9A4249DBAE,2020-04-08,02:36:00,27.3,54.2,3,6,7,468,0,2,-1,60,60,81,72,2,-2,60,0.0,0.0,25.039288,121.612939,0,0,0,0,0,0,0,0,0,0,0,0,0,00000000
0C9A4249DBAE,2020-04-08,02:36:15,27.3,54.2,3,6,6,468,0,2,-2,60,52,79,86,2,-1,60,0.0,0.0,25.039288,121.612939,0,0,0,0,0,0,0,0,0,0,0,0,0,00000000
0C9A4249DBAE,2020-04-08,02:36:30,27.3,54.1,3,6,6,468,0,2,-1,60,43,83,73,3,-2,61,0.0,0.0,25.039288,121.612939,0,0,0,0,0,0,0,0,0,0,0,0,0,00000000
0C9A4249DBAE,2020-04-08,02:36:45,27.3,54.1,3,5,6,467,0,3,-2,61,57,82,79,2,-2,60,0.0,0.0,25.039288,121.612939,0,0,0,0,0,0,0,0,0,0,0,0,0,00000000
0C9A4249DBAE,2020-04-08,02:37:00,27.3,54.1,4,5,6,467,0,2,-2,60,44,74,56,2,-2,60,0.0,0.0,25.039288,121.612939,0,0,0,0,0,0,0,0,0,0,0,0,0,00000000
0C9A4249DBAE,2020-04-08,02:37:15,27.3,54.2,4,5,6,465,0,2,-2,60,60,73,88,2,-1,60,0.0,0.0,25.039288,121.612939,0,0,0,0,0,0,0,0,0,0,0,0,0,00000000
0C9A4249DBAE,2020-04-08,02:37:30,27.3,54.1,4,6,7,466,0,2,-1,60,50,77,74,2,-2,60,0.0,0.0,25.039288,121.612939,0,0,0,0,0,0,0,0,0,0,0,0,0,00000000
0C9A4249DBAE,2020-04-08,02:37:45,27.3,54.2,4,6,7,466,0,2,-2,60,35,61,63,1,-1,61,0.0,0.0,25.039288,121.612939,0,0,0,0,0,0,0,0,0,0,0,0,0,00000000
0C9A4249DBAE,2020-04-08,02:38:00,27.3,54.2,4,6,7,467,0,1,-1,61,51,70,67,2,-1,60,0.0,0.0,25.039288,121.612939,0,0,0,0,0,0,0,0,0,0,0,0,0,00000000
0C9A4249DBAE,2020-04-08,02:38:15,27.3,54.2,4,6,6,467,0,2,-1,60,50,73,73,2,-2,61,0.0,0.0,25.039288,121.612939,0,0,0,0,0,0,0,0,0,0,0,0,0,00000000
0C9A4249DBAE,2020-04-08,02:38:30,27.3,54.2,3,5,6,467,0,2,-2,61,44,68,67,2,-2,60,0.0,0.0,25.039288,121.612939,0,0,0,0,0,0,0,0,0,0,0,0,0,00000000
0C9A4249DBAE,2020-04-08,02:38:45,27.3,54.2,4,6,6,467,0,2,-2,60,62,67,82,2,-1,60,0.0,0.0,25.039288,121.612939,0,0,0,0,0,0,0,0,0,0,0,0,0,00000000
0C9A4249DBAE,2020-04-08,02:39:00,27.3,54.2,3,6,6,467,0,2,-1,60,68,82,76,2,-1,60,0.0,0.0,25.039288,121.612939,0,0,0,0,0,0,0,0,0,0,0,0,0,00000000
0C9A4249DBAE,2020-04-08,02:39:15,27.3,54.1,3,6,6,466,0,2,-1,60,52,67,60,2,-2,60,0.0,0.0,25.039288,121.612939,0,0,0,0,0,0,0,0,0,0,0,0,0,00000000
0C9A4249DBAE,2020-04-08,02:39:30,27.3,54.1,3,5,5,466,0,2,-2,60,42,81,79,2,-1,61,0.0,0.0,25.039288,121.612939,0,0,0,0,0,0,0,0,0,0,0,0,0,00000000
0C9A4249DBAE,2020-04-08,02:39:45,27.3,54.1,3,5,5,466,0,2,-1,61,52,71,74,2,-2,61,0.0,0.0,25.039288,121.612939,0,0,0,0,0,0,0,0,0,0,0,0,0,00000000
0C9A4249DBAE,2020-04-08,02:40:00,27.3,54.1,3,5,5,468,0,2,-2,61,45,80,73,3,-2,60,0.0,0.0,25.039288,121.612939,0,0,0,0,0,0,0,0,0,0,0,0,0,00000000
0C9A4249DBAE,2020-04-08,02:40:15,27.3,54.1,3,5,6,468,0,3,-2,60,37,73,70,2,-1,60,0.0,0.0,25.039288,121.612939,0,0,0,0,0,0,0,0,0,0,0,0,0,00000000
0C9A4249DBAE,2020-04-08,02:40:30,27.3,54.1,4,6,7,468,0,2,-1,60,57,65,76,3,-2,60,0.0,0.0,25.039288,121.612939,0,0,0,0,0,0,0,0,0,0,0,0,0,00000000
0C9A4249DBAE,2020-04-08,02:40:45,27.3,54.1,3,6,7,468,0,3,-2,60,43,86,83,2,-2,61,0.0,0.0,25.039288,121.612939,0,0,0,0,0,0,0,0,0,0,0,0,0,00000000
0C9A4249DBAE,2020-04-08,02:41:00,27.3,54.1,3,6,6,468,0,2,-2,61,56,76,76,2,-2,61,0.0,0.0,25.039288,121.612939,0,0,0,0,0,0,0,0,0,0,0,0,0,00000000
0C9A4249DBAE,2020-04-08,02:41:15,27.3,54.1,2,5,6,468,0,2,-2,61,76,80,80,2,-2,61,0.0,0.0,25.039288,121.612939,0,0,0,0,0,0,0,0,0,0,0,0,0,00000000
0C9A4249DBAE,2020-04-08,02:41:30,27.3,54.1,3,5,5,467,0,2,-2,61,54,79,77,2,-1,60,0.0,0.0,25.039288,121.612939,0,0,0,0,0,0,0,0,0,0,0,0,0,00000000
0C9A4249DBAE,2020-04-08,02:41:45,27.3,54.1,3,5,6,467,0,2,-1,60,33,69,67,3,-2,61,0.0,0.0,25.039288,121.612939,0,0,0,0,0,0,0,0,0,0,0,0,0,00000000
0C9A4249DBAE,2020-04-08,02:42:00,27.3,54.1,3,4,5,467,0,3,-2,61,61,75,77,2,-1,60,0.0,0.0,25.039288,121.612939,0,0,0,0,0,0,0,0,0,0,0,0,0,00000000
0C9A4249DBAE,2020-04-08,02:42:15,27.3,54.1,3,4,4,467,0,2,-1,60,53,81,79,3,-2,61,0.0,0.0,25.039288,121.612939,0,0,0,0,0,0,0,0,0,0,0,0,0,00000000
0C9A4249DBAE,2020-04-08,02:42:30,27.3,54.1,3,5,6,466,0,3,-2,61,58,76,78,3,-2,61,0.0,0.0,25.039288,121.612939,0,0,0,0,0,0,0,0,0,0,0,0,0,00000000
0C9A4249DBAE,2020-04-08,02:42:45,27.3,54.1,3,5,6,467,0,3,-2,61,55,78,75,2,-2,60,0.0,0.0,25.039288,121.612939,0,0,0,0,0,0,0,0,0,0,0,0,0,00000000
0C9A4249DBAE,2020-04-08,02:43:00,27.3,54.1,3,5,6,467,0,2,-2,60,62,71,83,2,-1,61,0.0,0.0,25.039288,121.612939,0,0,0,0,0,0,0,0,0,0,0,0,0,00000000
0C9A4249DBAE,2020-04-08,02:43:15,27.3,54.1,4,6,6,466,0,2,-1,61,49,65,73,3,-2,60,0.0,0.0,25.039288,121.612939,0,0,0,0,0,0,0,0,0,0,0,0,0,00000000
0C9A4249DBAE,2020-04-08,02:43:30,27.3,54.1,4,5,5,466,0,3,-2,60,43,69,62,2,-1,60,0.0,0.0,25.039288,121.612939,0,0,0,0,0,0,0,0,0,0,0,0,0,00000000
0C9A4249DBAE,2020-04-08,02:43:45,27.3,54.1,4,6,6,466,0,2,-1,60,56,68,83,2,-1,61,0.0,0.0,25.039288,121.612939,0,0,0,0,0,0,0,0,0,0,0,0,0,00000000
0C9A4249DBAE,2020-04-08,02:44:00,27.3,54.1,2,4,4,465,0,2,-1,61,54,69,75,2,-2,60,0.0,0.0,25.039288,121.612939,0,0,0,0,0,0,0,0,0,0,0,0,0,00000000
0C9A4249DBAE,2020-04-08,02:44:15,27.3,54.1,3,5,5,466,0,2,-2,60,50,64,77,2,-2,61,0.0,0.0,25.039288,121.612939,0,0,0,0,0,0,0,0,0,0,0,0,0,00000000
0C9A4249DBAE,2020-04-08,02:44:30,27.3,54.1,3,6,6,465,0,2,-2,61,41,67,70,3,-1,61,0.0,0.0,25.039288,121.612939,0,0,0,0,0,0,0,0,0,0,0,0,0,00000000
0C9A4249DBAE,2020-04-08,02:44:45,27.3,54.1,3,5,5,466,0,3,-1,61,45,71,82,2,-2,61,0.0,0.0,25.039288,121.612939,0,0,0,0,0,0,0,0,0,0,0,0,0,00000000
0C9A4249DBAE,2020-04-08,02:45:00,27.3,54.1,4,6,6,465,0,2,-2,61,54,75,81,2,-1,60,0.0,0.0,25.039288,121.612939,0,0,0,0,0,0,0,0,0,0,0,0,0,00000000
0C9A4249DBAE,2020-04-08,02:45:15,27.3,54.1,4,6,6,465,0,2,-1,60,68,76,82,2,-1,60,0.0,0.0,25.039288,121.612939,0,0,0,0,0,0,0,0,0,0,0,0,0,00000000
0C9A4249DBAE,2020-04-08,02:45:30,27.3,54.2,4,6,6,465,0,2,-1,60,50,60,70,2,-1,60,0.0,0.0,25.039288,121.612939,0,0,0,0,0,0,0,0,0,0,0,0,0,00000000
0C9A4249DBAE,2020-04-08,02:45:45,27.3,54.2,4,5,6,465,0,2,-1,60,62,69,75,2,-2,61,0.0,0.0,25.039288,121.612939,0,0,0,0,0,0,0,0,0,0,0,0,0,00000000
0C9A4249DBAE,2020-04-08,02:46:00,27.3,54.1,3,5,6,466,0,2,-2,61,49,76,70,3,-2,61,0.0,0.0,25.039288,121.612939,0,0,0,0,0,0,0,0,0,0,0,0,0,00000000
0C9A4249DBAE,2020-04-08,02:46:15,27.3,54.2,4,6,6,465,0,3,-2,61,61,83,63,2,-3,60,0.0,0.0,25.039288,121.612939,0,0,0,0,0,0,0,0,0,0,0,0,0,00000000
0C9A4249DBAE,2020-04-08,02:46:30,27.3,54.2,3,5,6,465,0,2,-3,60,55,56,76,3,-1,60,0.0,0.0,25.039288,121.612939,0,0,0,0,0,0,0,0,0,0,0,0,0,00000000
0C9A4249DBAE,2020-04-08,02:46:45,27.3,54.2,3,6,6,465,0,3,-1,60,57,78,70,2,-1,60,0.0,0.0,25.039288,121.612939,0,0,0,0,0,0,0,0,0,0,0,0,0,00000000
0C9A4249DBAE,2020-04-08,02:47:00,27.3,54.2,2,4,5,465,0,2,-1,60,38,82,78,2,-1,60,0.0,0.0,25.039288,121.612939,0,0,0,0,0,0,0,0,0,0,0,0,0,00000000
0C9A4249DBAE,2020-04-08,02:47:15,27.3,54.2,2,6,6,465,0,2,-1,60,41,68,75,3,-1,61,0.0,0.0,25.039288,121.612939,0,0,0,0,0,0,0,0,0,0,0,0,0,00000000
0C9A4249DBAE,2020-04-08,02:47:30,27.3,54.2,2,6,6,465,0,3,-1,61,41,79,65,2,-2,60,0.0,0.0,25.039288,121.612939,0,0,0,0,0,0,0,0,0,0,0,0,0,00000000
0C9A4249DBAE,2020-04-08,02:47:45,27.3,54.1,3,6,6,466,0,2,-2,60,58,86,64,2,-2,60,0.0,0.0,25.039288,121.612939,0,0,0,0,0,0,0,0,0,0,0,0,0,00000000
0C9A4249DBAE,2020-04-08,02:48:00,27.3,54.1,3,5,5,466,0,2,-2,60,50,86,64,2,-2,60,0.0,0.0,25.039288,121.612939,0,0,0,0,0,0,0,0,0,0,0,0,0,00000000
0C9A4249DBAE,2020-04-08,02:48:15,27.3,54.2,3,5,5,466,0,2,-2,60,42,77,72,2,-1,60,0.0,0.0,25.039288,121.612939,0,0,0,0,0,0,0,0,0,0,0,0,0,00000000
0C9A4249DBAE,2020-04-08,02:48:30,27.3,54.1,3,5,5,465,0,2,-1,60,44,78,68,2,-1,60,0.0,0.0,25.039288,121.612939,0,0,0,0,0,0,0,0,0,0,0,0,0,00000000
0C9A4249DBAE,2020-04-08,02:48:45,27.3,54.1,3,6,6,465,0,2,-1,60,58,72,72,2,-1,60,0.0,0.0,25.039288,121.612939,0,0,0,0,0,0,0,0,0,0,0,0,0,00000000
0C9A4249DBAE,2020-04-08,02:49:00,27.3,54.2,3,6,6,466,0,2,-1,60,42,70,81,2,-1,61,0.0,0.0,25.039288,121.612939,0,0,0,0,0,0,0,0,0,0,0,0,0,00000000
0C9A4249DBAE,2020-04-08,02:49:15,27.3,54.2,3,6,6,465,0,2,-1,61,48,79,76,2,-2,61,0.0,0.0,25.039288,121.612939,0,0,0,0,0,0,0,0,0,0,0,0,0,00000000
0C9A4249DBAE,2020-04-08,02:49:30,27.3,54.2,3,5,5,466,0,2,-2,61,41,67,65,3,-1,60,0.0,0.0,25.039288,121.612939,0,0,0,0,0,0,0,0,0,0,0,0,0,00000000
0C9A4249DBAE,2020-04-08,02:49:45,27.2,54.2,4,6,6,466,0,3,-1,60,39,73,78,2,-2,60,0.0,0.0,25.039288,121.612939,0,0,0,0,0,0,0,0,0,0,0,0,0,00000000
0C9A4249DBAE,2020-04-08,02:50:00,27.3,54.2,3,5,5,467,0,2,-2,60,58,93,61,2,-1,61,0.0,0.0,25.039288,121.612939,0,0,0,0,0,0,0,0,0,0,0,0,0,00000000
0C9A4249DBAE,2020-04-08,02:50:15,27.3,54.2,3,5,5,467,0,2,-1,61,58,63,66,2,-2,61,0.0,0.0,25.039288,121.612939,0,0,0,0,0,0,0,0,0,0,0,0,0,00000000
0C9A4249DBAE,2020-04-08,02:50:30,27.2,54.2,3,5,5,467,0,2,-2,61,52,75,72,2,-1,61,0.0,0.0,25.039288,121.612939,0,0,0,0,0,0,0,0,0,0,0,0,0,00000000
0C9A4249DBAE,2020-04-08,02:50:45,27.3,54.2,3,5,5,468,0,2,-1,61,44,64,77,2,-1,60,0.0,0.0,25.039288,121.612939,0,0,0,0,0,0,0,0,0,0,0,0,0,00000000
0C9A4249DBAE,2020-04-08,02:51:00,27.3,54.2,3,5,5,467,0,2,-1,60,62,73,78,2,-2,60,0.0,0.0,25.039288,121.612939,0,0,0,0,0,0,0,0,0,0,0,0,0,00000000
0C9A4249DBAE,2020-04-08,02:51:15,27.3,54.2,4,6,6,469,0,2,-2,60,44,73,70,2,-1,60,0.0,0.0,25.039288,121.612939,0,0,0,0,0,0,0,0,0,0,0,0,0,00000000
0C9A4249DBAE,2020-04-08,02:51:30,27.3,54.2,3,6,6,469,0,2,-1,60,64,71,62,2,-2,60,0.0,0.0,25.039288,121.612939,0,0,0,0,0,0,0,0,0,0,0,0,0,00000000
0C9A4249DBAE,2020-04-08,02:51:45,27.3,54.2,3,6,6,469,0,2,-2,60,58,68,69,2,-2,61,0.0,0.0,25.039288,121.612939,0,0,0,0,0,0,0,0,0,0,0,0,0,00000000
0C9A4249DBAE,2020-04-08,02:52:00,27.3,54.2,3,6,6,469,0,2,-2,61,62,83,71,2,-1,60,0.0,0.0,25.039288,121.612939,0,0,0,0,0,0,0,0,0,0,0,0,0,00000000
0C9A4249DBAE,2020-04-08,02:52:15,27.3,54.2,2,5,5,469,0,2,-1,60,54,68,77,2,-1,61,0.0,0.0,25.039288,121.612939,0,0,0,0,0,0,0,0,0,0,0,0,0,00000000
0C9A4249DBAE,2020-04-08,02:52:30,27.3,54.2,3,5,5,469,0,2,-1,61,43,75,70,1,-2,61,0.0,0.0,25.039288,121.612939,0,0,0,0,0,0,0,0,0,0,0,0,0,00000000
0C9A4249DBAE,2020-04-08,02:52:45,27.3,54.2,3,5,6,469,0,1,-2,61,61,74,78,2,-2,61,0.0,0.0,25.039288,121.612939,0,0,0,0,0,0,0,0,0,0,0,0,0,00000000
0C9A4249DBAE,2020-04-08,02:53:00,27.3,54.2,2,4,4,467,0,2,-2,61,47,79,69,3,-1,60,0.0,0.0,25.039288,121.612939,0,0,0,0,0,0,0,0,0,0,0,0,0,00000000
0C9A4249DBAE,2020-04-08,02:53:15,27.3,54.2,4,5,5,468,0,3,-1,60,49,80,82,2,-1,60,0.0,0.0,25.039288,121.612939,0,0,0,0,0,0,0,0,0,0,0,0,0,00000000
0C9A4249DBAE,2020-04-08,02:53:30,27.2,54.2,4,5,5,469,0,2,-1,60,54,66,64,2,-1,60,0.0,0.0,25.039288,121.612939,0,0,0,0,0,0,0,0,0,0,0,0,0,00000000
0C9A4249DBAE,2020-04-08,02:53:45,27.2,54.2,4,5,5,469,0,2,-1,60,49,68,67,1,-1,61,0.0,0.0,25.039288,121.612939,0,0,0,0,0,0,0,0,0,0,0,0,0,00000000
0C9A4249DBAE,2020-04-08,02:54:00,27.2,54.2,4,5,5,469,0,1,-1,61,41,72,68,2,-1,61,0.0,0.0,25.039288,121.612939,0,0,0,0,0,0,0,0,0,0,0,0,0,00000000
0C9A4249DBAE,2020-04-08,02:54:15,27.3,54.2,4,5,5,469,0,2,-1,61,46,70,82,2,-1,61,0.0,0.0,25.039288,121.612939,0,0,0,0,0,0,0,0,0,0,0,0,0,00000000
0C9A4249DBAE,2020-04-08,02:54:30,27.3,54.2,3,4,4,467,0,2,-1,61,46,71,65,2,-2,60,0.0,0.0,25.039288,121.612939,0,0,0,0,0,0,0,0,0,0,0,0,0,00000000
0C9A4249DBAE,2020-04-08,02:54:45,27.3,54.2,2,3,4,468,0,2,-2,60,46,81,72,2,-1,60,0.0,0.0,25.039288,121.612939,0,0,0,0,0,0,0,0,0,0,0,0,0,00000000
0C9A4249DBAE,2020-04-08,02:55:00,27.2,54.2,3,4,5,468,0,2,-1,60,40,76,74,2,-1,60,0.0,0.0,25.039288,121.612939,0,0,0,0,0,0,0,0,0,0,0,0,0,00000000
0C9A4249DBAE,2020-04-08,02:55:15,27.2,54.2,3,5,6,468,0,2,-1,60,62,65,70,2,-2,60,0.0,0.0,25.039288,121.612939,0,0,0,0,0,0,0,0,0,0,0,0,0,00000000
0C9A4249DBAE,2020-04-08,02:55:30,27.2,54.2,3,5,6,469,0,2,-2,60,47,75,74,3,-1,60,0.0,0.0,25.039288,121.612939,0,0,0,0,0,0,0,0,0,0,0,0,0,00000000
0C9A4249DBAE,2020-04-08,02:55:45,27.2,54.2,3,5,5,468,0,3,-1,60,66,72,66,3,-1,60,0.0,0.0,25.039288,121.612939,0,0,0,0,0,0,0,0,0,0,0,0,0,00000000
0C9A4249DBAE,2020-04-08,02:56:00,27.2,54.2,3,6,6,468,0,3,-1,60,59,70,70,2,-1,60,0.0,0.0,25.039288,121.612939,0,0,0,0,0,0,0,0,0,0,0,0,0,00000000
0C9A4249DBAE,2020-04-08,02:56:15,27.2,54.2,3,6,6,468,0,2,-1,60,42,74,80,2,-1,60,0.0,0.0,25.039288,121.612939,0,0,0,0,0,0,0,0,0,0,0,0,0,00000000
0C9A4249DBAE,2020-04-08,02:56:30,27.3,54.2,3,6,6,468,0,2,-1,60,53,79,72,3,-2,60,0.0,0.0,25.039288,121.612939,0,0,0,0,0,0,0,0,0,0,0,0,0,00000000
0C9A4249DBAE,2020-04-08,02:56:45,27.3,54.2,3,5,5,468,0,3,-2,60,63,71,71,2,-1,61,0.0,0.0,25.039288,121.612939,0,0,0,0,0,0,0,0,0,0,0,0,0,00000000
0C9A4249DBAE,2020-04-08,02:57:00,27.2,54.2,3,5,6,468,0,2,-1,61,68,75,66,2,-2,61,0.0,0.0,25.039288,121.612939,0,0,0,0,0,0,0,0,0,0,0,0,0,00000000
0C9A4249DBAE,2020-04-08,02:57:15,27.3,54.2,3,5,6,468,0,2,-2,61,57,89,77,1,-1,62,0.0,0.0,25.039288,121.612939,0,0,0,0,0,0,0,0,0,0,0,0,0,00000000
0C9A4249DBAE,2020-04-08,02:57:30,27.3,54.2,3,5,6,468,0,1,-1,62,61,68,82,2,-1,60,0.0,0.0,25.039288,121.612939,0,0,0,0,0,0,0,0,0,0,0,0,0,00000000
0C9A4249DBAE,2020-04-08,02:57:45,27.2,54.2,3,5,5,468,0,2,-1,60,37,61,66,3,-2,60,0.0,0.0,25.039288,121.612939,0,0,0,0,0,0,0,0,0,0,0,0,0,00000000
0C9A4249DBAE,2020-04-08,02:58:00,27.2,54.2,3,5,5,468,0,3,-2,60,59,79,85,2,-1,61,0.0,0.0,25.039288,121.612939,0,0,0,0,0,0,0,0,0,0,0,0,0,00000000
0C9A4249DBAE,2020-04-08,02:58:15,27.3,54.2,3,5,5,468,0,2,-1,61,58,82,82,2,-1,61,0.0,0.0,25.039288,121.612939,0,0,0,0,0,0,0,0,0,0,0,0,0,00000000
0C9A4249DBAE,2020-04-08,02:58:30,27.3,54.2,3,6,6,468,0,2,-1,61,53,76,74,3,-1,61,0.0,0.0,25.039288,121.612939,0,0,0,0,0,0,0,0,0,0,0,0,0,00000000
0C9A4249DBAE,2020-04-08,02:58:45,27.2,54.2,3,7,7,468,0,3,-1,61,47,76,68,2,-1,61,0.0,0.0,25.039288,121.612939,0,0,0,0,0,0,0,0,0,0,0,0,0,00000000
0C9A4249DBAE,2020-04-08,02:59:00,27.2,54.2,4,7,7,467,0,2,-1,61,56,72,81,2,-1,60,0.0,0.0,25.039288,121.612939,0,0,0,0,0,0,0,0,0,0,0,0,0,00000000
0C9A4249DBAE,2020-04-08,02:59:15,27.2,54.2,4,6,6,468,0,2,-1,60,48,58,70,2,-1,60,0.0,0.0,25.039288,121.612939,0,0,0,0,0,0,0,0,0,0,0,0,0,00000000
0C9A4249DBAE,2020-04-08,02:59:30,27.2,54.2,3,6,6,467,0,2,-1,60,62,78,83,2,-1,61,0.0,0.0,25.039288,121.612939,0,0,0,0,0,0,0,0,0,0,0,0,0,00000000
0C9A4249DBAE,2020-04-08,02:59:45,27.2,54.2,3,5,5,467,0,2,-1,61,56,78,78,2,-1,61,0.0,0.0,25.039288,121.612939,0,0,0,0,0,0,0,0,0,0,0,0,0,00000000
0C9A4249DBAE,2020-04-08,03:00:00,27.3,54.2,3,5,5,467,0,2,-1,61,42,65,83,2,-2,60,0.0,0.0,25.039288,121.612939,0,0,0,0,0,0,0,0,0,0,0,0,0,00000000
0C9A4249DBAE,2020-04-08,03:00:15,27.2,54.3,3,5,5,467,0,2,-2,60,69,77,78,3,-1,60,0.0,0.0,25.039288,121.612939,0,0,0,0,0,0,0,0,0,0,0,0,0,00000000
0C9A4249DBAE,2020-04-08,03:00:30,27.2,54.2,3,5,5,467,0,3,-1,60,49,84,58,2,-1,60,0.0,0.0,25.039288,121.612939,0,0,0,0,0,0,0,0,0,0,0,0,0,00000000
0C9A4249DBAE,2020-04-08,03:00:45,27.3,54.3,3,5,5,467,0,2,-1,60,52,74,70,2,-1,60,0.0,0.0,25.039288,121.612939,0,0,0,0,0,0,0,0,0,0,0,0,0,00000000
0C9A4249DBAE,2020-04-08,03:01:00,27.2,54.2,3,5,5,467,0,2,-1,60,64,77,76,2,-2,60,0.0,0.0,25.039288,121.612939,0,0,0,0,0,0,0,0,0,0,0,0,0,00000000
0C9A4249DBAE,2020-04-08,03:01:15,27.2,54.2,4,5,5,467,0,2,-2,60,54,68,83,2,-2,61,0.0,0.0,25.039288,121.612939,0,0,0,0,0,0,0,0,0,0,0,0,0,00000000
0C9A4249DBAE,2020-04-08,03:01:30,27.2,54.3,3,5,5,467,0,2,-2,61,54,81,74,2,-1,61,0.0,0.0,25.039288,121.612939,0,0,0,0,0,0,0,0,0,0,0,0,0,00000000
0C9A4249DBAE,2020-04-08,03:01:45,27.2,54.2,3,4,5,467,0,2,-1,61,61,81,71,3,-2,60,0.0,0.0,25.039288,121.612939,0,0,0,0,0,0,0,0,0,0,0,0,0,00000000
0C9A4249DBAE,2020-04-08,03:02:00,27.3,54.2,2,3,3,468,0,3,-2,60,53,72,74,2,-2,60,0.0,0.0,25.039288,121.612939,0,0,0,0,0,0,0,0,0,0,0,0,0,00000000
0C9A4249DBAE,2020-04-08,03:02:15,27.2,54.2,3,4,5,467,0,2,-2,60,38,65,81,2,-1,59,0.0,0.0,25.039288,121.612939,0,0,0,0,0,0,0,0,0,0,0,0,0,00000000
0C9A4249DBAE,2020-04-08,03:02:30,27.3,54.2,3,5,6,468,0,2,-1,59,62,70,78,2,-1,61,0.0,0.0,25.039288,121.612939,0,0,0,0,0,0,0,0,0,0,0,0,0,00000000
0C9A4249DBAE,2020-04-08,03:02:45,27.2,54.2,3,5,6,466,0,2,-1,61,58,69,72,2,-2,61,0.0,0.0,25.039288,121.612939,0,0,0,0,0,0,0,0,0,0,0,0,0,00000000
0C9A4249DBAE,2020-04-08,03:03:00,27.2,54.2,3,6,6,467,0,2,-2,61,58,77,77,2,-1,60,0.0,0.0,25.039288,121.612939,0,0,0,0,0,0,0,0,0,0,0,0,0,00000000
0C9A4249DBAE,2020-04-08,03:03:15,27.2,54.3,3,5,5,468,0,2,-1,60,52,74,81,2,-1,59,0.0,0.0,25.039288,121.612939,0,0,0,0,0,0,0,0,0,0,0,0,0,00000000
0C9A4249DBAE,2020-04-08,03:03:30,27.2,54.3,3,5,5,467,0,2,-1,59,55,63,65,3,-2,60,0.0,0.0,25.039288,121.612939,0,0,0,0,0,0,0,0,0,0,0,0,0,00000000
0C9A4249DBAE,2020-04-08,03:03:45,27.2,54.3,3,5,6,468,0,3,-2,60,66,74,87,1,-2,61,0.0,0.0,25.039288,121.612939,0,0,0,0,0,0,0,0,0,0,0,0,0,00000000
0C9A4249DBAE,2020-04-08,03:04:00,27.2,54.4,2,4,4,468,0,1,-2,61,51,79,73,2,-1,60,0.0,0.0,25.039288,121.612939,0,0,0,0,0,0,0,0,0,0,0,0,0,00000000
0C9A4249DBAE,2020-04-08,03:04:15,27.2,54.3,3,5,5,467,0,2,-1,60,46,76,69,2,-1,61,0.0,0.0,25.039288,121.612939,0,0,0,0,0,0,0,0,0,0,0,0,0,00000000
0C9A4249DBAE,2020-04-08,03:04:30,27.2,54.3,3,4,4,467,0,2,-1,61,46,72,67,2,-1,60,0.0,0.0,25.039288,121.612939,0,0,0,0,0,0,0,0,0,0,0,0,0,00000000
0C9A4249DBAE,2020-04-08,03:04:45,27.2,54.3,3,4,4,467,0,2,-1,60,68,78,79,2,-1,61,0.0,0.0,25.039288,121.612939,0,0,0,0,0,0,0,0,0,0,0,0,0,00000000
0C9A4249DBAE,2020-04-08,03:05:00,27.2,54.4,2,3,3,466,0,2,-1,61,50,84,77,2,-1,60,0.0,0.0,25.039288,121.612939,0,0,0,0,0,0,0,0,0,0,0,0,0,00000000
0C9A4249DBAE,2020-04-08,03:05:15,27.2,54.3,2,3,4,466,0,2,-1,60,58,78,90,2,-1,60,0.0,0.0,25.039288,121.612939,0,0,0,0,0,0,0,0,0,0,0,0,0,00000000
0C9A4249DBAE,2020-04-08,03:05:30,27.2,54.3,3,4,5,467,0,2,-1,60,62,72,70,2,-1,60,0.0,0.0,25.039288,121.612939,0,0,0,0,0,0,0,0,0,0,0,0,0,00000000
0C9A4249DBAE,2020-04-08,03:05:45,27.2,54.3,2,5,5,467,0,2,-1,60,46,68,68,2,-1,60,0.0,0.0,25.039288,121.612939,0,0,0,0,0,0,0,0,0,0,0,0,0,00000000
0C9A4249DBAE,2020-04-08,03:06:00,27.2,54.3,2,5,5,468,0,2,-1,60,44,61,72,2,-2,60,0.0,0.0,25.039288,121.612939,0,0,0,0,0,0,0,0,0,0,0,0,0,00000000
0C9A4249DBAE,2020-04-08,03:06:15,27.2,54.3,3,6,6,467,0,2,-2,60,59,70,76,3,-2,60,0.0,0.0,25.039288,121.612939,0,0,0,0,0,0,0,0,0,0,0,0,0,00000000
0C9A4249DBAE,2020-04-08,03:06:30,27.2,54.3,3,6,6,465,0,3,-2,60,59,71,76,2,-1,60,0.0,0.0,25.039288,121.612939,0,0,0,0,0,0,0,0,0,0,0,0,0,00000000
0C9A4249DBAE,2020-04-08,03:06:45,27.2,54.3,3,4,4,466,0,2,-1,60,46,77,74,2,-2,60,0.0,0.0,25.039288,121.612939,0,0,0,0,0,0,0,0,0,0,0,0,0,00000000
0C9A4249DBAE,2020-04-08,03:07:00,27.2,54.3,2,4,4,466,0,2,-2,60,54,71,62,2,-1,60,0.0,0.0,25.039288,121.612939,0,0,0,0,0,0,0,0,0,0,0,0,0,00000000
0C9A4249DBAE,2020-04-08,03:07:15,27.2,54.3,2,4,4,466,0,2,-1,60,50,78,82,2,-1,60,0.0,0.0,25.039288,121.612939,0,0,0,0,0,0,0,0,0,0,0,0,0,00000000
0C9A4249DBAE,2020-04-08,03:07:30,27.2,54.3,3,4,4,466,0,2,-1,60,54,82,63,2,-1,61,0.0,0.0,25.039288,121.612939,0,0,0,0,0,0,0,0,0,0,0,0,0,00000000
0C9A4249DBAE,2020-04-08,03:07:45,27.2,54.3,3,5,5,466,0,2,-1,61,49,73,72,3,-2,61,0.0,0.0,25.039288,121.612939,0,0,0,0,0,0,0,0,0,0,0,0,0,00000000
0C9A4249DBAE,2020-04-08,03:08:00,27.2,54.3,4,6,6,467,0,3,-2,61,54,70,76,1,-2,61,0.0,0.0,25.039288,121.612939,0,0,0,0,0,0,0,0,0,0,0,0,0,00000000
0C9A4249DBAE,2020-04-08,03:08:15,27.2,54.3,3,6,6,466,0,1,-2,61,57,74,73,2,-2,60,0.0,0.0,25.039288,121.612939,0,0,0,0,0,0,0,0,0,0,0,0,0,00000000
0C9A4249DBAE,2020-04-08,03:08:30,27.2,54.3,3,6,6,466,0,2,-2,60,39,80,87,3,-2,61,0.0,0.0,25.039288,121.612939,0,0,0,0,0,0,0,0,0,0,0,0,0,00000000
0C9A4249DBAE,2020-04-08,03:08:45,27.2,54.3,3,5,6,466,0,3,-2,61,55,78,73,2,-2,60,0.0,0.0,25.039288,121.612939,0,0,0,0,0,0,0,0,0,0,0,0,0,00000000
0C9A4249DBAE,2020-04-08,03:09:00,27.2,54.3,3,6,6,466,0,2,-2,60,48,84,58,2,-2,60,0.0,0.0,25.039288,121.612939,0,0,0,0,0,0,0,0,0,0,0,0,0,00000000
0C9A4249DBAE,2020-04-08,03:09:15,27.2,54.3,2,4,5,466,0,2,-2,60,44,71,67,2,-1,61,0.0,0.0,25.039288,121.612939,0,0,0,0,0,0,0,0,0,0,0,0,0,00000000
0C9A4249DBAE,2020-04-08,03:09:30,27.2,54.3,3,5,6,466,0,2,-1,61,51,80,83,3,-1,60,0.0,0.0,25.039288,121.612939,0,0,0,0,0,0,0,0,0,0,0,0,0,00000000
0C9A4249DBAE,2020-04-08,03:09:45,27.2,54.3,3,4,4,466,0,3,-1,60,43,76,82,2,-1,60,0.0,0.0,25.039288,121.612939,0,0,0,0,0,0,0,0,0,0,0,0,0,00000000
0C9A4249DBAE,2020-04-08,03:10:00,27.2,54.3,3,4,4,466,0,2,-1,60,46,84,82,2,-1,60,0.0,0.0,25.039288,121.612939,0,0,0,0,0,0,0,0,0,0,0,0,0,00000000
0C9A4249DBAE,2020-04-08,03:10:15,27.2,54.2,3,5,5,466,0,2,-1,60,51,75,64,3,-2,60,0.0,0.0,25.039288,121.612939,0,0,0,0,0,0,0,0,0,0,0,0,0,00000000
0C9A4249DBAE,2020-04-08,03:10:30,27.2,54.3,3,5,6,466,0,3,-2,60,45,74,83,2,-2,61,0.0,0.0,25.039288,121.612939,0,0,0,0,0,0,0,0,0,0,0,0,0,00000000
0C9A4249DBAE,2020-04-08,03:10:45,27.2,54.3,2,4,4,467,0,2,-2,61,62,75,73,2,-1,60,0.0,0.0,25.039288,121.612939,0,0,0,0,0,0,0,0,0,0,0,0,0,00000000
0C9A4249DBAE,2020-04-08,03:11:00,27.2,54.3,3,6,6,468,0,2,-1,60,52,86,82,2,-1,60,0.0,0.0,25.039288,121.612939,0,0,0,0,0,0,0,0,0,0,0,0,0,00000000
0C9A4249DBAE,2020-04-08,03:11:15,27.2,54.3,2,5,5,467,0,2,-1,60,50,85,67,2,-2,61,0.0,0.0,25.039288,121.612939,0,0,0,0,0,0,0,0,0,0,0,0,0,00000000
0C9A4249DBAE,2020-04-08,03:11:30,27.2,54.3,3,6,6,467,0,2,-2,61,55,71,70,3,-1,61,0.0,0.0,25.039288,121.612939,0,0,0,0,0,0,0,0,0,0,0,0,0,00000000
0C9A4249DBAE,2020-04-08,03:11:45,27.2,54.3,2,5,5,467,0,3,-1,61,49,56,69,2,-1,60,0.0,0.0,25.039288,121.612939,0,0,0,0,0,0,0,0,0,0,0,0,0,00000000
0C9A4249DBAE,2020-04-08,03:12:00,27.2,54.3,3,4,5,467,0,2,-1,60,50,72,76,2,-1,60,0.0,0.0,25.039288,121.612939,0,0,0,0,0,0,0,0,0,0,0,0,0,00000000
0C9A4249DBAE,2020-04-08,03:12:15,27.2,54.3,2,4,4,467,0,2,-1,60,47,77,75,3,-2,59,0.0,0.0,25.039288,121.612939,0,0,0,0,0,0,0,0,0,0,0,0,0,00000000
0C9A4249DBAE,2020-04-08,03:12:30,27.2,54.3,2,4,4,467,0,3,-2,59,51,76,73,2,-2,60,0.0,0.0,25.039288,121.612939,0,0,0,0,0,0,0,0,0,0,0,0,0,00000000
0C9A4249DBAE,2020-04-08,03:12:45,27.2,54.3,3,4,5,467,0,2,-2,60,44,61,64,2,-1,60,0.0,0.0,25.039288,121.612939,0,0,0,0,0,0,0,0,0,0,0,0,0,00000000
0C9A4249DBAE,2020-04-08,03:13:00,27.2,54.3,2,3,3,466,0,2,-1,60,42,66,68,2,-1,60,0.0,0.0,25.039288,121.612939,0,0,0,0,0,0,0,0,0,0,0,0,0,00000000
0C9A4249DBAE,2020-04-08,03:13:15,27.2,54.3,3,5,5,466,0,2,-1,60,46,80,66,2,-1,60,0.0,0.0,25.039288,121.612939,0,0,0,0,0,0,0,0,0,0,0,0,0,00000000
0C9A4249DBAE,2020-04-08,03:13:30,27.2,54.3,3,4,4,466,0,2,-1,60,64,72,100,2,-1,60,0.0,0.0,25.039288,121.612939,0,0,0,0,0,0,0,0,0,0,0,0,0,00000000
0C9A4249DBAE,2020-04-08,03:13:45,27.2,54.3,3,6,6,466,0,2,-1,60,41,68,86,1,-1,60,0.0,0.0,25.039288,121.612939,0,0,0,0,0,0,0,0,0,0,0,0,0,00000000
0C9A4249DBAE,2020-04-08,03:14:00,27.2,54.3,3,5,5,467,0,1,-1,60,28,83,74,3,-2,60,0.0,0.0,25.039288,121.612939,0,0,0,0,0,0,0,0,0,0,0,0,0,00000000
0C9A4249DBAE,2020-04-08,03:14:15,27.2,54.3,2,4,5,467,0,3,-2,60,45,70,74,2,-2,60,0.0,0.0,25.039288,121.612939,0,0,0,0,0,0,0,0,0,0,0,0,0,00000000
0C9A4249DBAE,2020-04-08,03:14:30,27.2,54.3,2,4,5,466,0,2,-2,60,47,71,66,1,-1,60,0.0,0.0,25.039288,121.612939,0,0,0,0,0,0,0,0,0,0,0,0,0,00000000
0C9A4249DBAE,2020-04-08,03:14:45,27.2,54.3,2,5,5,466,0,1,-1,60,46,86,80,3,-1,60,0.0,0.0,25.039288,121.612939,0,0,0,0,0,0,0,0,0,0,0,0,0,00000000
0C9A4249DBAE,2020-04-08,03:15:00,27.3,54.2,2,5,5,466,0,3,-1,60,50,79,71,3,-2,61,0.0,0.0,25.039288,121.612939,0,0,0,0,0,0,0,0,0,0,0,0,0,00000000
0C9A4249DBAE,2020-04-08,03:15:15,27.3,54.2,3,5,5,466,0,3,-2,61,67,80,68,2,-2,61,0.0,0.0,25.039288,121.612939,0,0,0,0,0,0,0,0,0,0,0,0,0,00000000
0C9A4249DBAE,2020-04-08,03:15:30,27.2,54.2,3,5,5,466,0,2,-2,61,72,88,86,2,-2,61,0.0,0.0,25.039288,121.612939,0,0,0,0,0,0,0,0,0,0,0,0,0,00000000
0C9A4249DBAE,2020-04-08,03:15:45,27.2,54.2,2,4,4,465,0,2,-2,61,48,72,65,2,-2,60,0.0,0.0,25.039288,121.612939,0,0,0,0,0,0,0,0,0,0,0,0,0,00000000
0C9A4249DBAE,2020-04-08,03:16:00,27.2,54.2,3,5,5,466,0,2,-2,60,56,82,80,2,-2,60,0.0,0.0,25.039288,121.612939,0,0,0,0,0,0,0,0,0,0,0,0,0,00000000
0C9A4249DBAE,2020-04-08,03:16:15,27.2,54.2,2,3,3,466,0,2,-2,60,42,73,72,2,-1,60,0.0,0.0,25.039288,121.612939,0,0,0,0,0,0,0,0,0,0,0,0,0,00000000
0C9A4249DBAE,2020-04-08,03:16:30,27.2,54.2,1,3,3,466,0,2,-1,60,54,81,76,2,-2,60,0.0,0.0,25.039288,121.612939,0,0,0,0,0,0,0,0,0,0,0,0,0,00000000
0C9A4249DBAE,2020-04-08,03:16:45,27.2,54.2,3,4,5,467,0,2,-2,60,58,69,70,2,-1,60,0.0,0.0,25.039288,121.612939,0,0,0,0,0,0,0,0,0,0,0,0,0,00000000
0C9A4249DBAE,2020-04-08,03:17:00,27.2,54.3,3,5,5,467,0,2,-1,60,54,68,86,2,-1,60,0.0,0.0,25.039288,121.612939,0,0,0,0,0,0,0,0,0,0,0,0,0,00000000
0C9A4249DBAE,2020-04-08,03:17:15,27.3,54.2,3,5,6,467,0,2,-1,60,58,65,88,2,-2,60,0.0,0.0,25.039288,121.612939,0,0,0,0,0,0,0,0,0,0,0,0,0,00000000
0C9A4249DBAE,2020-04-08,03:17:30,27.2,54.2,3,5,5,467,0,2,-2,60,64,59,65,2,-1,61,0.0,0.0,25.039288,121.612939,0,0,0,0,0,0,0,0,0,0,0,0,0,00000000
0C9A4249DBAE,2020-04-08,03:17:45,27.2,54.2,2,4,4,467,0,2,-1,61,54,80,79,2,-1,60,0.0,0.0,25.039288,121.612939,0,0,0,0,0,0,0,0,0,0,0,0,0,00000000
0C9A4249DBAE,2020-04-08,03:18:00,27.2,54.2,3,5,5,467,0,2,-1,60,52,69,86,2,-2,60,0.0,0.0,25.039288,121.612939,0,0,0,0,0,0,0,0,0,0,0,0,0,00000000
0C9A4249DBAE,2020-04-08,03:18:15,27.2,54.2,3,5,5,466,0,2,-2,60,33,80,62,3,-2,60,0.0,0.0,25.039288,121.612939,0,0,0,0,0,0,0,0,0,0,0,0,0,00000000
0C9A4249DBAE,2020-04-08,03:18:30,27.2,54.3,2,4,4,466,0,3,-2,60,53,76,78,2,-2,60,0.0,0.0,25.039288,121.612939,0,0,0,0,0,0,0,0,0,0,0,0,0,00000000
0C9A4249DBAE,2020-04-08,03:18:45,27.2,54.2,3,5,5,465,0,2,-2,60,52,77,80,2,-1,60,0.0,0.0,25.039288,121.612939,0,0,0,0,0,0,0,0,0,0,0,0,0,00000000
0C9A4249DBAE,2020-04-08,03:19:00,27.2,54.3,2,4,4,464,0,2,-1,60,40,74,80,2,-1,60,0.0,0.0,25.039288,121.612939,0,0,0,0,0,0,0,0,0,0,0,0,0,00000000
0C9A4249DBAE,2020-04-08,03:19:15,27.2,54.2,3,4,5,464,0,2,-1,60,44,74,70,2,-1,60,0.0,0.0,25.039288,121.612939,0,0,0,0,0,0,0,0,0,0,0,0,0,00000000
0C9A4249DBAE,2020-04-08,03:19:30,27.2,54.3,3,4,5,464,0,2,-1,60,67,81,78,3,-2,60,0.0,0.0,25.039288,121.612939,0,0,0,0,0,0,0,0,0,0,0,0,0,00000000
0C9A4249DBAE,2020-04-08,03:19:45,27.2,54.2,2,4,4,465,0,3,-2,60,65,90,80,2,-2,60,0.0,0.0,25.039288,121.612939,0,0,0,0,0,0,0,0,0,0,0,0,0,00000000
0C9A4249DBAE,2020-04-08,03:20:00,27.2,54.3,3,4,4,466,0,2,-2,60,63,74,86,3,-2,60,0.0,0.0,25.039288,121.612939,0,0,0,0,0,0,0,0,0,0,0,0,0,00000000
0C9A4249DBAE,2020-04-08,03:20:15,27.2,54.3,2,3,3,466,0,3,-2,60,37,64,78,2,-2,60,0.0,0.0,25.039288,121.612939,0,0,0,0,0,0,0,0,0,0,0,0,0,00000000
0C9A4249DBAE,2020-04-08,03:20:30,27.2,54.3,3,5,5,466,0,2,-2,60,46,80,63,2,-2,61,0.0,0.0,25.039288,121.612939,0,0,0,0,0,0,0,0,0,0,0,0,0,00000000
0C9A4249DBAE,2020-04-08,03:20:45,27.2,54.3,2,4,4,466,0,2,-2,61,48,64,78,2,-2,61,0.0,0.0,25.039288,121.612939,0,0,0,0,0,0,0,0,0,0,0,0,0,00000000
0C9A4249DBAE,2020-04-08,03:21:00,27.2,54.3,3,6,6,466,0,2,-2,61,59,78,67,3,-2,60,0.0,0.0,25.039288,121.612939,0,0,0,0,0,0,0,0,0,0,0,0,0,00000000
0C9A4249DBAE,2020-04-08,03:21:15,27.2,54.3,3,6,6,466,0,3,-2,60,48,77,92,1,-1,60,0.0,0.0,25.039288,121.612939,0,0,0,0,0,0,0,0,0,0,0,0,0,00000000
0C9A4249DBAE,2020-04-08,03:21:30,27.2,54.3,3,5,6,466,0,1,-1,60,61,85,78,2,-2,60,0.0,0.0,25.039288,121.612939,0,0,0,0,0,0,0,0,0,0,0,0,0,00000000
0C9A4249DBAE,2020-04-08,03:21:45,27.2,54.3,3,5,6,466,0,2,-2,60,52,76,72,2,-2,60,0.0,0.0,25.039288,121.612939,0,0,0,0,0,0,0,0,0,0,0,0,0,00000000
0C9A4249DBAE,2020-04-08,03:22:00,27.2,54.3,3,5,6,466,0,2,-2,60,62,65,64,2,-1,60,0.0,0.0,25.039288,121.612939,0,0,0,0,0,0,0,0,0,0,0,0,0,00000000
0C9A4249DBAE,2020-04-08,03:22:15,27.2,54.3,3,5,5,466,0,2,-1,60,50,78,76,2,-1,60,0.0,0.0,25.039288,121.612939,0,0,0,0,0,0,0,0,0,0,0,0,0,00000000
0C9A4249DBAE,2020-04-08,03:22:30,27.2,54.3,2,4,4,466,0,2,-1,60,55,61,92,3,-2,60,0.0,0.0,25.039288,121.612939,0,0,0,0,0,0,0,0,0,0,0,0,0,00000000
0C9A4249DBAE,2020-04-08,03:22:45,27.2,54.3,3,4,4,466,0,3,-2,60,57,73,62,2,-1,60,0.0,0.0,25.039288,121.612939,0,0,0,0,0,0,0,0,0,0,0,0,0,00000000
0C9A4249DBAE,2020-04-08,03:23:00,27.2,54.3,3,4,4,466,0,2,-1,60,32,72,65,2,-1,61,0.0,0.0,25.039288,121.612939,0,0,0,0,0,0,0,0,0,0,0,0,0,00000000
0C9A4249DBAE,2020-04-08,03:23:15,27.2,54.3,2,3,4,466,0,2,-1,61,60,76,66,2,-1,61,0.0,0.0,25.039288,121.612939,0,0,0,0,0,0,0,0,0,0,0,0,0,00000000
0C9A4249DBAE,2020-04-08,03:23:30,27.2,54.3,3,4,5,466,0,2,-1,61,52,72,83,2,-1,60,0.0,0.0,25.039288,121.612939,0,0,0,0,0,0,0,0,0,0,0,0,0,00000000
0C9A4249DBAE,2020-04-08,03:23:45,27.2,54.3,3,4,5,466,0,2,-1,60,66,80,69,2,-3,61,0.0,0.0,25.039288,121.612939,0,0,0,0,0,0,0,0,0,0,0,0,0,00000000
0C9A4249DBAE,2020-04-08,03:24:00,27.2,54.3,3,4,5,467,0,2,-3,61,60,83,87,2,-2,60,0.0,0.0,25.039288,121.612939,0,0,0,0,0,0,0,0,0,0,0,0,0,00000000
0C9A4249DBAE,2020-04-08,03:24:15,27.2,54.3,3,5,5,467,0,2,-2,60,69,77,83,1,-1,61,0.0,0.0,25.039288,121.612939,0,0,0,0,0,0,0,0,0,0,0,0,0,00000000
0C9A4249DBAE,2020-04-08,03:24:30,27.2,54.3,2,4,5,466,0,1,-1,61,49,75,80,2,-2,61,0.0,0.0,25.039288,121.612939,0,0,0,0,0,0,0,0,0,0,0,0,0,00000000
0C9A4249DBAE,2020-04-08,03:24:45,27.2,54.3,3,5,6,467,0,2,-2,61,44,76,60,2,-2,61,0.0,0.0,25.039288,121.612939,0,0,0,0,0,0,0,0,0,0,0,0,0,00000000
0C9A4249DBAE,2020-04-08,03:25:00,27.2,54.3,1,3,4,466,0,2,-2,61,60,79,70,2,-1,61,0.0,0.0,25.039288,121.612939,0,0,0,0,0,0,0,0,0,0,0,0,0,00000000
0C9A4249DBAE,2020-04-08,03:25:15,27.2,54.3,1,3,4,466,0,2,-1,61,70,75,69,2,-2,60,0.0,0.0,25.039288,121.612939,0,0,0,0,0,0,0,0,0,0,0,0,0,00000000
0C9A4249DBAE,2020-04-08,03:25:30,27.2,54.3,2,4,4,467,0,2,-2,60,49,71,67,3,-3,61,0.0,0.0,25.039288,121.612939,0,0,0,0,0,0,0,0,0,0,0,0,0,00000000
